File: Glass FTIR Baseline Share With Sarah 2023/1630_Peaks_Baseline_removed.csv
Wavenumber,WD23MI02,WD33MI03,WD71AMI01,SH01MI11,SH01MI05,WD23MI03A,FI38MI01C,SH01MI12B,CV09EMI05,FI38MI01B,SH01MI12A,OK14MI07,OK14MI12,OK14MI01,WD35MI04A,OK14MI06C,FI45MI02,WD70MI03,Terry3MI03,WD70MI01A,WD35MI02,FI45MI06,WD35MI01,WD07MI01B,FI38MI05A,SH58MI01,SH63MI34,OK17MI05A,FI45MI04A,JFL30AMI12,SH63MI24
1400.09,0.00890504,0.00477517,0.0362671,0.008385,0.0053846,0.0248888,0.00638968,0.00807982,0.00938947,0.00543978,0.011019,0.0112425,0.00374133,0.00513928,0.00760772,0.00135815,0.0129276,0.00855703,0.00620073,0.0127192,0.00794104,0.0123042,0.0133497,0.00558377,0.00665762,0.00552155,0.00898315,0.00204469,0.00924173,0.011934,0.00472347
1403.947,0.00775232,0.00504166,0.0362299,0.0087544,0.00571425,0.0256724,0.00627473,0.00790884,0.0094914,0.00572538,0.0107336,0.011088,0.00330918,0.0052973,0.00770449,0.00112569,0.0129057,0.0088387,0.00597988,0.0134273,0.00843202,0.0119828,0.0139402,0.00621791,0.00714115,0.00605018,0.00876651,0.00214959,0.00923641,0.0122024,0.0043642
1407.804,0.00745811,0.00532206,0.0361483,0.00922616,0.00599549,0.0263622,0.00621172,0.00793837,0.00964096,0.00608883,0.0104058,0.0104817,0.00290257,0.00469724,0.00767485,0.00101312,0.0132261,0.00927268,0.00572149,0.0140356,0.00878926,0.0119968,0.0137749,0.00705289,0.00735284,0.00614207,0.00830188,0.00216805,0.00979347,0.0123504,0.0046396
1411.661,0.00741745,0.0051888,0.0355487,0.00922906,0.00593773,0.0256934,0.00620369,0.0082892,0.00973712,0.00623434,0.00961374,0.0118249,0.0027172,0.00459909,0.00734258,0.00077466,0.0131714,0.00959496,0.00561879,0.0141853,0.00900981,0.0114838,0.0137079,0.00739622,0.0071274,0.00547029,0.00827102,0.00221632,0.0102776,0.0114595,0.00517756
1415.518,0.00478944,0.00524109,0.0350007,0.00878274,0.00572001,0.0247197,0.00609275,0.00829794,0.00973041,0.00617951,0.00913173,0.0131704,0.00213082,0.00454296,0.00663917,0.00061764,0.0129656,0.00993841,0.00339066,0.0141143,0.00897564,0.0110818,0.0134925,0.00721622,0.00633108,0.00470515,0.00863543,0.00209839,0.010953,0.0103784,0.00558612
1419.375,0.0120032,0.00516087,0.034612,0.00831184,0.00557237,0.02414,0.00613297,0.00839896,0.00966193,0.00597987,0.00930449,0.0128885,0.00171722,0.00376981,0.00624184,0.000523347,0.0129124,0.0100566,0.00547745,0.0137354,0.00930766,0.0108154,0.0129537,0.00689217,0.00540878,0.00454569,0.00913183,0.00179287,0.0116521,0.00973422,0.00560105
1423.232,0.00671751,0.00545957,0.0345175,0.00777166,0.00560542,0.0243403,0.00627034,0.00816224,0.00965197,0.0052174,0.00978329,0.0121966,0.00182821,0.00413182,0.0062498,0.000454648,0.0129372,0.0101405,0.00567926,0.0131643,0.00967426,0.0111048,0.0124308,0.00651684,0.0044803,0.00491629,0.00939709,0.00150588,0.0117885,0.00954811,0.00574073
1427.089,0.00457702,0.00576993,0.0342944,0.00737811,0.00581804,0.0245404,0.006287,0.00824407,0.00964524,0.00480079,0.010331,0.0110286,0.00239897,0.00444595,0.00635143,0.000518009,0.0129828,0.0101593,0.00475656,0.0128108,0.00988982,0.0115767,0.0122892,0.00618302,0.00419161,0.00556294,0.00955654,0.0013587,0.0115567,0.00994872,0.00558607
1430.946,0.0056193,0.00566071,0.0345602,0.00769774,0.00630487,0.0253321,0.00633393,0.00801904,0.00948957,0.00453314,0.0108187,0.0087933,0.00300137,0.00425101,0.00665158,0.000600476,0.0132676,0.0101301,0.00529386,0.0126642,0.00976827,0.0123102,0.012242,0.00611301,0.00446236,0.00621808,0.00944949,0.00125291,0.0116179,0.0112824,0.00553723
1434.803,0.00243304,0.00518069,0.0344866,0.00847474,0.00674012,0.0259236,0.0063174,0.00765129,0.00932789,0.00457094,0.0107683,0.00814909,0.00371635,0.0041528,0.00718924,0.000766044,0.0134507,0.00991698,0.00376915,0.0125096,0.00933737,0.0130393,0.0122787,0.0062692,0.0049042,0.00665229,0.00878615,0.00124132,0.0110492,0.0123862,0.00563457
1438.66,0.00789386,0.00487848,0.0346176,0.0090828,0.00713299,0.0261255,0.00620192,0.00770998,0.00923413,0.0050053,0.0105883,0.00815385,0.00431449,0.00497264,0.00742903,0.000937331,0.0132295,0.00959545,0.00769686,0.0124973,0.00893122,0.0126549,0.0125397,0.00659021,0.00563839,0.00664992,0.00845126,0.00144593,0.0104457,0.0130139,0.00552096
1442.517,0.00583002,0.00503835,0.0351426,0.00918731,0.0073908,0.0265976,0.0060406,0.00855151,0.00921343,0.00530979,0.0108346,0.00803519,0.00428416,0.00572836,0.00758568,0.00112124,0.0127349,0.00939778,0.00597778,0.0129112,0.00846383,0.0123998,0.0128175,0.00708475,0.00639048,0.00630956,0.00868508,0.00165293,0.0099622,0.0134251,0.00523427
1446.374,0.00713417,0.00476243,0.0351967,0.00962191,0.00722073,0.0262388,0.0060777,0.00924657,0.00930684,0.00603306,0.0109672,0.00918972,0.00402627,0.0068821,0.00751225,0.00131897,0.0124553,0.00911739,0.00573027,0.0131491,0.00789551,0.0122982,0.013229,0.00752557,0.00691379,0.00599716,0.0092483,0.00196464,0.00930881,0.0128703,0.00549659
1450.231,0.00958406,0.00479101,0.0346127,0.00928889,0.00654508,0.0249737,0.00608124,0.00954823,0.00924208,0.00673849,0.0109093,0.0113712,0.00343478,0.00667869,0.00685966,0.00149379,0.0120332,0.0086813,0.00657911,0.0130664,0.00757698,0.0116995,0.0136767,0.00724778,0.00725493,0.00540507,0.00935539,0.00221468,0.00852381,0.0111864,0.00610606
1454.088,0.00559292,0.00488631,0.0346232,0.00876005,0.00568196,0.0241234,0.00573181,0.0102025,0.00960197,0.0075533,0.010626,0.0117612,0.0025762,0.00610983,0.00644317,0.00159076,0.0116613,0.00879426,0.00291194,0.0130673,0.00815428,0.0117801,0.0139243,0.00657315,0.00727033,0.00468089,0.00970806,0.00247802,0.00945307,0.0102485,0.00570577
1457.945,0.0117598,0.00580988,0.0357902,0.00830847,0.00523127,0.024666,0.00532665,0.0106415,0.0104793,0.00808862,0.0103473,0.011698,0.00117699,0.0056195,0.00638596,0.00162619,0.0117658,0.00960017,0.00536567,0.013132,0.00949568,0.0131488,0.0138191,0.0060317,0.00690379,0.00443441,0.00957003,0.00250452,0.0117855,0.0104533,0.00457179
1461.802,0.00837368,0.00692638,0.0373369,0.00800464,0.00531911,0.0254538,0.00511162,0.0103448,0.0114773,0.00812903,0.010141,0.0116223,0.000164286,0.00558971,0.00662441,0.00161317,0.0123891,0.0105374,0.00448502,0.013097,0.0109255,0.0139092,0.0133002,0.00549254,0.00598136,0.00451841,0.00925496,0.00241725,0.013386,0.0108239,0.0037624
1465.659,0.00688894,0.0078388,0.0388585,0.00821885,0.00519914,0.0259885,0.00518957,0.00961641,0.0124476,0.00738617,0.0097705,0.00919282,-0.000336522,0.00603139,0.00724974,0.00149817,0.0130159,0.0113595,0.00433819,0.012762,0.0119932,0.0144191,0.0119952,0.00492886,0.00476974,0.00417458,0.00861749,0.00223928,0.015202,0.0114567,0.00292252
1469.516,0.00285544,0.00899282,0.0408297,0.00882401,0.00548206,0.0271008,0.00528311,0.00959341,0.0133698,0.00620783,0.00991247,0.00702359,-0.00019494,0.00674288,0.00852225,0.00133558,0.0139745,0.0125887,0.00212375,0.0127115,0.0129421,0.0157206,0.0114236,0.00501742,0.0037708,0.00387621,0.00854189,0.001996,0.0167231,0.0128462,0.00203057
1473.373,0.00497094,0.00945892,0.0418693,0.0102897,0.00551806,0.0274156,0.0052835,0.00957388,0.0141087,0.00555499,0.00960178,0.0066607,0.000239156,0.00716579,0.00980979,0.0011222,0.0149534,0.0133959,0.00384231,0.0124111,0.0136868,0.0171978,0.0114448,0.00532765,0.00328725,0.00356272,0.00847936,0.00179711,0.0173971,0.0140452,0.00146681
1477.23,0.00361432,0.0100494,0.0432443,0.0115787,0.00582867,0.0293889,0.00536931,0.0102458,0.0149231,0.00490209,0.0094127,0.00572906,0.00110855,0.00722152,0.0110096,0.000948853,0.0157979,0.0144718,0.00485235,0.0124442,0.0148609,0.0186265,0.0118227,0.00624718,0.0034769,0.00329557,0.00917849,0.0017464,0.0185045,0.0150601,0.000460821
1481.087,0.00290022,0.0108018,0.0443722,0.0128553,0.00617166,0.0320497,0.0052629,0.0114348,0.0157343,0.0053303,0.0091797,0.00582191,0.00158358,0.00763474,0.0119236,0.000760569,0.0166945,0.015409,0.0047103,0.0125332,0.0159868,0.0200199,0.0127937,0.00741101,0.00444601,0.00303522,0.00997409,0.00195981,0.0197806,0.0158734,-0.000584218
1484.944,0.00327221,0.0123885,0.046241,0.0135301,0.00739284,0.0354098,0.0051045,0.013395,0.0166861,0.00616989,0.0097789,0.00797456,0.00178825,0.00780744,0.0125888,0.00057213,0.0176973,0.0166376,0.00483462,0.0130675,0.0173352,0.0220349,0.0140319,0.00902114,0.00603903,0.00344925,0.0112463,0.00226504,0.0212671,0.0172346,-0.00171745
1488.801,0.00412784,0.0128113,0.0478349,0.0141636,0.00853028,0.0372314,0.00505424,0.0148045,0.0176815,0.00727381,0.0101267,0.00922709,0.00171328,0.00790059,0.0128643,0.000255286,0.0186407,0.0176917,0.00537946,0.0134887,0.0181627,0.0235652,0.0151141,0.0100511,0.00746473,0.00388233,0.0123542,0.00279137,0.0218357,0.0178369,-0.00257005
1492.658,0.00678086,0.0134762,0.0503806,0.014721,0.0102865,0.040009,0.0050513,0.0163546,0.0187878,0.00787795,0.0107218,0.00889232,0.00139884,0.00789297,0.0129468,9.67958e-05,0.0200817,0.0189609,0.0066392,0.0140722,0.0188456,0.0253588,0.0160427,0.0111925,0.00888117,0.00487273,0.0130771,0.00324226,0.0230484,0.0186035,-0.0036507
1496.515,0.00714804,0.0128653,0.0514238,0.0149226,0.0110793,0.0409192,0.00516398,0.0174153,0.0195053,0.00878804,0.0107794,0.00737765,0.000646049,0.00755723,0.0126316,-0.000126115,0.0211009,0.0198657,0.00577286,0.0141247,0.0190793,0.0263555,0.0170218,0.0116736,0.00946359,0.00577949,0.0137665,0.0036519,0.0244356,0.019243,-0.00458601
1500.372,0.00628663,0.011369,0.0498208,0.0144495,0.0108579,0.039314,0.00556866,0.0166776,0.0192577,0.00921289,0.00977359,0.00399512,-0.000959084,0.00640262,0.0117492,-0.000696595,0.020793,0.0200434,0.00631455,0.0133204,0.0179036,0.0262655,0.0164998,0.011053,0.00879154,0.00567216,0.0129053,0.00353748,0.0246001,0.0185997,-0.00518565
1504.229,0.00257085,0.0113474,0.0501508,0.0153191,0.0111471,0.0417303,0.00631264,0.0170684,0.0201453,0.0100327,0.00940461,0.00364462,-0.00119872,0.00738968,0.0119281,-0.000778754,0.0220753,0.0212279,0.00469028,0.0134327,0.0188743,0.0271701,0.0165317,0.0114564,0.00833067,0.00623457,0.0129567,0.0040699,0.0262697,0.0191489,-0.00544592
1508.086,0.00784355,0.0122876,0.0515146,0.0165645,0.0115255,0.0443159,0.0071052,0.0174723,0.0209508,0.010948,0.00923345,0.00470171,-0.00114567,0.00798236,0.0127769,-0.000841942,0.0240005,0.0224022,0.00642328,0.0136802,0.0200438,0.0281895,0.0161946,0.0121831,0.00820336,0.00644867,0.013424,0.00450603,0.0290621,0.0200409,-0.00555476
1511.943,0.00332166,0.0138565,0.0534732,0.0184436,0.0118702,0.0471073,0.00773515,0.0182751,0.0220158,0.0110868,0.00930124,0.00788793,-0.000789845,0.00920682,0.0142777,-0.000929729,0.0255818,0.0234103,0.00673368,0.0139159,0.0211644,0.0292542,0.0157053,0.01287,0.00806077,0.00592054,0.0145948,0.00479942,0.0314582,0.0218236,-0.00523541
1515.8,0.00430279,0.0156295,0.0567965,0.0207055,0.0121859,0.0506404,0.00843263,0.0195447,0.0232727,0.0112748,0.00966906,0.0108492,-0.000367619,0.00984281,0.0160629,-0.000917189,0.0273645,0.0243936,0.00759661,0.0145798,0.0222028,0.0305877,0.0158315,0.0138682,0.00790239,0.00545091,0.0156921,0.00505858,0.0324717,0.0236731,-0.00494066
1519.657,0.00291091,0.0178155,0.0620113,0.0226462,0.0133996,0.0554097,0.00916291,0.0214102,0.024834,0.0111077,0.0106198,0.012331,0.000453802,0.0100482,0.0181102,-0.000639398,0.0297039,0.0259333,0.00809589,0.0158477,0.0236114,0.0324562,0.0167843,0.0157139,0.00844273,0.00579177,0.0172564,0.00517713,0.0338304,0.0261037,-0.005049
1523.514,0.00403923,0.0180625,0.0645068,0.0239787,0.0131171,0.0580413,0.0100595,0.0229017,0.0257458,0.012031,0.0112801,0.0118549,0.00106476,0.00997224,0.0196743,-0.000621404,0.0311792,0.0269506,0.00947717,0.0163469,0.0246268,0.0340614,0.0182256,0.0167094,0.00850529,0.00590286,0.0186635,0.00522608,0.0345389,0.0275956,-0.00490426
1527.371,0.00598997,0.0199653,0.0689506,0.0252545,0.014135,0.062765,0.0107079,0.0246635,0.0273933,0.0131747,0.0129139,0.0107511,0.00212926,0.0105941,0.0210756,-0.000384321,0.0329624,0.0284479,0.00986857,0.0176447,0.0263988,0.036776,0.0202978,0.018064,0.0091194,0.00696766,0.0199006,0.00549017,0.0351524,0.0294119,-0.00497411
1531.228,0.00606228,0.021111,0.0698056,0.0254945,0.0145197,0.0654285,0.0113591,0.0260598,0.0277699,0.0140825,0.0137522,0.0097734,0.0029995,0.0111792,0.0221219,-0.000167467,0.0346566,0.0296547,0.00954751,0.0189117,0.0279742,0.0396889,0.0221816,0.0182951,0.00970158,0.00788136,0.0201913,0.00563504,0.0362987,0.0299407,-0.00560902
1535.085,0.0093542,0.0214016,0.0709628,0.026076,0.0144694,0.0681545,0.0120484,0.0268958,0.0285882,0.015702,0.014506,0.00896934,0.00334738,0.0118822,0.0226989,0.000267988,0.0363886,0.0308652,0.00943258,0.0198915,0.0296108,0.0424798,0.0244345,0.0180242,0.0108259,0.00868225,0.0206326,0.00569141,0.0385597,0.0302699,-0.00603526
1538.942,0.00876608,0.0218044,0.0728782,0.0272059,0.0146581,0.0713575,0.0126674,0.0276137,0.0299174,0.0169611,0.0151341,0.0110707,0.003051,0.0133084,0.0232034,0.00065504,0.038167,0.0318124,0.00788774,0.0208861,0.0308394,0.0447901,0.0263359,0.0175783,0.0122702,0.00912231,0.0211002,0.00569945,0.0396155,0.0306734,-0.00618982
1542.799,0.00997169,0.022609,0.0768865,0.0286257,0.0154686,0.0764025,0.0136788,0.028559,0.0314411,0.0186183,0.0163919,0.0141705,0.00262228,0.0136532,0.0240236,0.00100983,0.0403222,0.0331569,0.00871186,0.0222552,0.0323333,0.0473024,0.0286281,0.0177311,0.013963,0.00974213,0.0219273,0.00578299,0.040869,0.0318511,-0.00619566
1546.656,0.0120946,0.0228318,0.0829636,0.0309506,0.0173656,0.0822143,0.0148665,0.0300368,0.0336619,0.020087,0.0181605,0.017181,0.00233358,0.0143839,0.0251949,0.00130996,0.0431931,0.0345864,0.0098841,0.0240124,0.0343142,0.0497842,0.0308953,0.0184821,0.015893,0.0104679,0.0238736,0.00608253,0.0428759,0.0340737,-0.00563012
1550.513,0.0128624,0.0231697,0.0872142,0.0333563,0.019026,0.0875666,0.0160477,0.0310456,0.0349673,0.021361,0.0197067,0.0171435,0.00276913,0.016121,0.0266184,0.00124208,0.0463251,0.0352671,0.0101732,0.025363,0.035728,0.0509735,0.0325705,0.0188223,0.0172604,0.0100437,0.0257842,0.00650356,0.0449442,0.0351694,-0.00508886
1554.37,0.0137863,0.0259573,0.0936299,0.0364181,0.0217324,0.0940595,0.0173895,0.0327452,0.0364699,0.0226108,0.0220973,0.0170795,0.00358096,0.0172228,0.028644,0.0012709,0.0496615,0.0362327,0.0101386,0.0272102,0.037431,0.0526419,0.0343091,0.0199365,0.0180834,0.00989844,0.0283598,0.00722139,0.0473424,0.0377312,-0.0043748
1558.227,0.0106102,0.0281947,0.0977768,0.0388139,0.0230316,0.0992697,0.0192117,0.0349691,0.0373583,0.0247047,0.0240932,0.017857,0.00411003,0.0178184,0.0313954,0.00152555,0.0530875,0.0372317,0.0105601,0.0290805,0.0389623,0.0547204,0.0359731,0.0208379,0.0184935,0.00973342,0.0308965,0.00791434,0.0503286,0.0398888,-0.00314143
1562.084,0.0132246,0.0309373,0.105116,0.041801,0.0248245,0.107365,0.0215435,0.0380262,0.0393027,0.0273184,0.0267342,0.0193465,0.00491203,0.0185459,0.034571,0.00213333,0.0570342,0.0390083,0.0130028,0.0317353,0.0411032,0.0580614,0.0383829,0.0226831,0.0192159,0.0106414,0.0330389,0.00867095,0.0540095,0.0433089,-0.00151881
1565.941,0.0162428,0.0340613,0.113661,0.0444912,0.0270026,0.116251,0.0239679,0.0414356,0.0414067,0.0297726,0.0299026,0.022154,0.00600452,0.020159,0.0379986,0.00284891,0.0606619,0.0412027,0.0146985,0.0349998,0.0432241,0.0623607,0.0412749,0.0250295,0.0199285,0.01258,0.0344528,0.00946418,0.057639,0.0471245,0.000328734
1569.798,0.0184007,0.0366859,0.124905,0.0473769,0.0295655,0.127241,0.0266536,0.0451236,0.0442531,0.0321769,0.0340204,0.0263823,0.00724763,0.0221068,0.0413892,0.00380932,0.0647632,0.0440178,0.0157252,0.0391877,0.0462184,0.068451,0.0456732,0.027683,0.0211372,0.0152769,0.0359299,0.0103774,0.0615411,0.0512637,0.00249412
1573.655,0.0200694,0.0381089,0.136025,0.0503476,0.0319235,0.138222,0.029333,0.0480674,0.047199,0.0344307,0.037895,0.0296744,0.00867286,0.024845,0.0442712,0.00452657,0.0693213,0.0467459,0.0169387,0.0436527,0.0492736,0.075222,0.0507742,0.02974,0.0226027,0.0178062,0.0373133,0.0112509,0.0658438,0.0546195,0.00508861
1577.512,0.0228603,0.040372,0.148202,0.0538329,0.0346596,0.150522,0.0322628,0.0509254,0.0501234,0.0368119,0.0425331,0.0327145,0.0106165,0.0280736,0.0475226,0.00516158,0.0749008,0.0499028,0.0183828,0.0489045,0.053075,0.0816007,0.057027,0.0317276,0.024996,0.0202999,0.0395442,0.0120211,0.0704741,0.0578877,0.00766775
1581.369,0.0290642,0.0440338,0.164251,0.0584387,0.0378296,0.165202,0.0358558,0.054729,0.054198,0.0399492,0.0485338,0.0364032,0.0125239,0.0305588,0.0512172,0.00583496,0.0820289,0.0541882,0.020661,0.0550651,0.0581033,0.088822,0.0644202,0.0344211,0.0284278,0.0232523,0.0433968,0.0128053,0.0761482,0.0629822,0.010416
1585.226,0.0335361,0.0481508,0.183469,0.0644407,0.040952,0.182636,0.0403867,0.0598004,0.0594134,0.0445303,0.0557015,0.0419183,0.0139793,0.0328945,0.0557058,0.00658621,0.0907725,0.059523,0.0228767,0.0622989,0.0639467,0.097218,0.0730605,0.0376083,0.0333323,0.0263433,0.0487801,0.0136907,0.0833195,0.0697036,0.0134582
1589.083,0.0382707,0.0534322,0.207464,0.072332,0.0451161,0.204365,0.0461013,0.0668071,0.0659904,0.0500292,0.0642343,0.04963,0.0159018,0.0359474,0.0613161,0.00755984,0.101759,0.0662902,0.0270918,0.0713965,0.0707571,0.106902,0.0834372,0.0421083,0.0393053,0.0302096,0.0557183,0.0148112,0.092672,0.0785746,0.0170451
1592.94,0.0453032,0.0593215,0.237301,0.0825587,0.0499223,0.230246,0.0533417,0.0756252,0.0742573,0.0568555,0.074971,0.059814,0.0182193,0.0397423,0.0684484,0.00882781,0.115022,0.0745035,0.0328125,0.0825415,0.0783775,0.118347,0.095837,0.0479362,0.0459313,0.035251,0.0639971,0.0165426,0.103645,0.0897253,0.0219228
1596.797,0.0511109,0.0659127,0.274594,0.0949652,0.0562055,0.262178,0.0623819,0.0865384,0.0848792,0.0650086,0.0881423,0.0725262,0.021218,0.0448527,0.0777106,0.0105198,0.131768,0.0850305,0.0381926,0.0968642,0.088225,0.132784,0.111245,0.0557166,0.0538076,0.041833,0.0746589,0.0188103,0.116943,0.103843,0.0282082
1600.654,0.0618283,0.0742088,0.322765,0.110101,0.0643909,0.301384,0.0735743,0.100045,0.0984715,0.0751045,0.104579,0.0887691,0.0252059,0.0513173,0.0895782,0.0126662,0.152947,0.0983417,0.0467872,0.115297,0.100445,0.150963,0.130727,0.0657365,0.0631195,0.0510713,0.0882792,0.0218488,0.133063,0.12197,0.0369716
1604.511,0.0731334,0.0838559,0.379976,0.127205,0.0746036,0.347195,0.0868729,0.11637,0.114416,0.0867214,0.124319,0.106796,0.0309787,0.060049,0.103996,0.0151725,0.177748,0.114492,0.0567914,0.137756,0.115449,0.172236,0.154574,0.0780124,0.0741133,0.0630221,0.104455,0.0255255,0.152174,0.143566,0.0481324
1608.368,0.0887199,0.0954371,0.451576,0.147736,0.0870898,0.405358,0.103317,0.135873,0.134668,0.101024,0.148547,0.127066,0.0383964,0.07147,0.121302,0.0182893,0.20768,0.134512,0.0691537,0.165535,0.133715,0.197961,0.184912,0.0928811,0.087104,0.0778841,0.124497,0.0303267,0.176424,0.170918,0.0630065
1612.225,0.107922,0.108515,0.532075,0.1708,0.101825,0.468858,0.122148,0.158393,0.157877,0.117604,0.176495,0.150797,0.0471706,0.0849738,0.140446,0.021918,0.241527,0.157535,0.0823326,0.197791,0.154695,0.227345,0.220739,0.109876,0.102149,0.0952056,0.147772,0.0359244,0.20312,0.202341,0.0804716
1616.082,0.127218,0.123121,0.618874,0.196486,0.118677,0.538338,0.142781,0.183664,0.183694,0.135702,0.207483,0.17953,0.0570054,0.0990727,0.160925,0.0260168,0.27881,0.183387,0.0970369,0.233967,0.178188,0.260132,0.261578,0.128746,0.118899,0.114939,0.174052,0.0423157,0.232634,0.237835,0.101034
1619.939,0.152863,0.13824,0.706209,0.223421,0.136573,0.610636,0.164445,0.21024,0.210607,0.154465,0.240159,0.210919,0.0671822,0.113066,0.182046,0.030293,0.316945,0.210574,0.113803,0.27169,0.203265,0.293919,0.304511,0.14821,0.136494,0.135497,0.201496,0.0489636,0.262725,0.275271,0.123523
1623.796,0.175344,0.152703,0.785984,0.248878,0.153464,0.678198,0.184934,0.236039,0.235578,0.171824,0.27115,0.242056,0.0768392,0.126444,0.201559,0.0342535,0.353174,0.236331,0.126249,0.307269,0.227733,0.32493,0.346201,0.166545,0.15345,0.155022,0.227365,0.0549679,0.291311,0.310127,0.144438
1627.653,0.19453,0.165831,0.842867,0.271038,0.167233,0.736945,0.202889,0.258611,0.256047,0.186963,0.297476,0.270124,0.0850273,0.136609,0.218218,0.0375555,0.384154,0.257789,0.139398,0.337433,0.248821,0.351514,0.382894,0.182076,0.168201,0.171361,0.248774,0.0602995,0.313838,0.338349,0.162448
1631.51,0.20759,0.174692,0.876218,0.286368,0.176233,0.782174,0.216141,0.275286,0.268702,0.197627,0.315874,0.287705,0.0907267,0.144331,0.23013,0.0396778,0.406073,0.272325,0.147715,0.358126,0.263614,0.370377,0.409407,0.193172,0.17869,0.182872,0.262074,0.0638179,0.330598,0.357689,0.173438
1635.367,0.218697,0.180293,0.893777,0.296523,0.181023,0.815574,0.224815,0.286083,0.275583,0.204024,0.326518,0.294894,0.0937185,0.149393,0.237546,0.0407682,0.419686,0.280384,0.150023,0.369705,0.272485,0.381932,0.42591,0.200147,0.184737,0.189127,0.267967,0.0658534,0.341256,0.369472,0.178194
1639.224,0.219915,0.181306,0.880974,0.298245,0.179893,0.821885,0.226929,0.288726,0.272976,0.204892,0.326789,0.291131,0.0933372,0.149544,0.238359,0.0403306,0.421572,0.279546,0.149254,0.368717,0.272876,0.383023,0.428811,0.201175,0.184992,0.189028,0.264064,0.0658949,0.341932,0.369474,0.174728
1643.081,0.21475,0.179381,0.854033,0.293694,0.174385,0.814242,0.224223,0.284182,0.265569,0.20238,0.318879,0.281365,0.0897215,0.146503,0.234763,0.0390792,0.415357,0.272464,0.144091,0.358794,0.26779,0.378364,0.421671,0.197437,0.180937,0.184759,0.253032,0.0646362,0.335949,0.362624,0.165848
1646.938,0.209661,0.173188,0.810326,0.281039,0.164729,0.788509,0.215809,0.272463,0.251205,0.194852,0.302819,0.263535,0.0837124,0.140374,0.226295,0.0367459,0.399445,0.258676,0.135803,0.339699,0.256794,0.365216,0.403007,0.189282,0.172508,0.175669,0.235652,0.0613013,0.323875,0.346353,0.151178
1650.795,0.19116,0.165035,0.755808,0.263915,0.152715,0.747759,0.203676,0.256235,0.233274,0.183573,0.282111,0.243078,0.0764182,0.131671,0.214588,0.0337563,0.377623,0.240836,0.124415,0.314961,0.241852,0.345623,0.376825,0.178113,0.161215,0.163769,0.214976,0.0568395,0.306588,0.32254,0.134045
1654.652,0.181734,0.155038,0.689296,0.242892,0.139143,0.699282,0.188875,0.236323,0.212179,0.169906,0.258235,0.219018,0.0682692,0.120518,0.200305,0.030447,0.350415,0.220151,0.113112,0.286511,0.22339,0.322376,0.344784,0.164787,0.14794,0.149876,0.192168,0.0517588,0.284796,0.294014,0.116418
1658.509,0.167417,0.143204,0.625604,0.220518,0.125753,0.648856,0.173246,0.215099,0.19089,0.154786,0.233536,0.194852,0.0598852,0.109456,0.184736,0.0271443,0.321662,0.198803,0.10106,0.257102,0.2035,0.296761,0.310171,0.150629,0.133987,0.135561,0.169798,0.0462188,0.262713,0.264792,0.0992324
1662.366,0.147856,0.13018,0.557499,0.198638,0.112266,0.592361,0.157123,0.19273,0.169633,0.138758,0.208746,0.169444,0.0520582,0.0977099,0.168007,0.0238333,0.290392,0.177407,0.0887963,0.22726,0.182379,0.268846,0.275049,0.135659,0.119409,0.120718,0.147997,0.0409045,0.238559,0.235033,0.0837701
1666.223,0.129356,0.116601,0.488888,0.176881,0.098775,0.531894,0.141269,0.170413,0.148664,0.122982,0.18501,0.146381,0.0447481,0.086148,0.150861,0.0206336,0.257636,0.156356,0.0761528,0.19816,0.161236,0.240596,0.241023,0.120138,0.104796,0.106215,0.127169,0.0357405,0.21374,0.20564,0.0698356
1670.08,0.113015,0.103195,0.422628,0.155434,0.0856029,0.473212,0.125882,0.148224,0.129302,0.107829,0.161871,0.124718,0.037824,0.0759022,0.133908,0.0177226,0.22584,0.136109,0.0651471,0.17098,0.140895,0.214013,0.209111,0.104472,0.090761,0.0921828,0.108054,0.0308715,0.190257,0.178375,0.0570661
1673.937,0.100123,0.0903924,0.361523,0.135666,0.0732199,0.41504,0.111391,0.128029,0.111227,0.0939774,0.140713,0.104772,0.0319106,0.0654266,0.11783,0.0150965,0.196297,0.117239,0.054913,0.146005,0.121608,0.188652,0.18052,0.0897902,0.0777845,0.0788518,0.0911167,0.0264118,0.168368,0.152292,0.0463827
1677.794,0.0836976,0.0793405,0.307474,0.118131,0.0618601,0.359971,0.0977885,0.110057,0.0952403,0.0814926,0.121764,0.0875566,0.026859,0.055552,0.103045,0.0128719,0.169297,0.100346,0.0470825,0.123856,0.104079,0.165576,0.154879,0.0761524,0.0660291,0.0667617,0.076298,0.022622,0.147853,0.129104,0.0378282
1681.651,0.0718016,0.0701359,0.258992,0.101867,0.0520168,0.310838,0.085069,0.0946299,0.0805511,0.0699593,0.104215,0.0718967,0.0223541,0.0468422,0.0894369,0.0109766,0.144947,0.0852915,0.0389981,0.104698,0.0884263,0.144682,0.131695,0.0640951,0.055582,0.0562597,0.0637388,0.019093,0.129285,0.108665,0.030382
1685.508,0.0641902,0.0624059,0.220423,0.0887323,0.0441967,0.270338,0.0743693,0.0821207,0.0687137,0.0601453,0.0890483,0.0597822,0.0185306,0.0395683,0.077538,0.00940222,0.124866,0.0728456,0.0334117,0.0887684,0.0751446,0.126126,0.112155,0.0541777,0.0469917,0.0477887,0.0532028,0.0163203,0.113384,0.0925742,0.0246114
1689.365,0.0509274,0.0551446,0.186734,0.0774934,0.0369016,0.234324,0.0648389,0.0710185,0.0584883,0.0519384,0.0755887,0.0507182,0.0151767,0.0331234,0.067126,0.00811661,0.10703,0.0620072,0.0292669,0.075041,0.0640042,0.109083,0.0954975,0.0457259,0.0397352,0.0410962,0.0439444,0.014238,0.0982207,0.078512,0.0197839
1693.222,0.0418564,0.0483782,0.157212,0.0670605,0.0308322,0.202369,0.0561858,0.0606629,0.0493804,0.0445004,0.0633879,0.0427451,0.0123244,0.0279522,0.0583041,0.00699447,0.0911231,0.0524285,0.023334,0.0629145,0.0544647,0.0932647,0.080235,0.0384662,0.0339921,0.0356254,0.0358161,0.0123106,0.0845277,0.0664672,0.0154082
1697.079,0.0362423,0.0422414,0.133809,0.0583824,0.0265949,0.176456,0.0493433,0.051827,0.0420926,0.0381405,0.0536269,0.0370974,0.00974228,0.023663,0.0515464,0.00612979,0.0784394,0.0447793,0.0195806,0.0528794,0.046409,0.0798198,0.0670822,0.032962,0.0299526,0.0317031,0.0292464,0.0108974,0.0731594,0.0565368,0.0116544
1700.936,0.0327698,0.0366403,0.113256,0.0503291,0.0230499,0.153374,0.0437669,0.0436554,0.0360374,0.0333388,0.045667,0.0318929,0.00743058,0.0192338,0.0461239,0.00550128,0.0677204,0.0381483,0.0170089,0.0437935,0.0390996,0.0684664,0.0562773,0.0283373,0.0271214,0.028238,0.0233979,0.00977769,0.0628955,0.047632,0.00874731
1704.793,0.0249448,0.0324282,0.0966825,0.0433264,0.0210032,0.134331,0.0391108,0.0370336,0.0310774,0.0290388,0.0395393,0.0270001,0.00549877,0.0162547,0.0416556,0.00503636,0.0583815,0.0328234,0.0152328,0.0364627,0.0328888,0.0593742,0.0466639,0.0247361,0.0249879,0.0256992,0.0188934,0.00882461,0.0544324,0.04067,0.00566266
1708.65,0.0219456,0.0293072,0.0828725,0.0374915,0.0199295,0.11827,0.0354456,0.0318057,0.0268193,0.0255273,0.0347431,0.0231327,0.00399322,0.0149274,0.0378692,0.0047903,0.050068,0.0283621,0.0134047,0.0302145,0.027329,0.0517805,0.0387057,0.0216107,0.0231543,0.0230624,0.0157913,0.00796608,0.0477098,0.0348865,0.0028954
1712.507,0.019099,0.0265441,0.0725005,0.0332513,0.0196499,0.105877,0.0326059,0.0284481,0.0234873,0.0224948,0.0312911,0.0220578,0.00311232,0.0142726,0.0343117,0.00464741,0.0433266,0.0247439,0.0105365,0.0252992,0.0230008,0.0459721,0.0329074,0.0190226,0.0213428,0.0206899,0.0136658,0.00739027,0.0425703,0.0304821,0.00107361
1716.364,0.0168809,0.0238826,0.0635366,0.029875,0.0192033,0.0955527,0.0300496,0.0259456,0.0208496,0.0199328,0.028134,0.0220166,0.00279819,0.0140487,0.0312875,0.00455172,0.0377438,0.0215854,0.00862864,0.021293,0.0198089,0.0408882,0.028807,0.0164513,0.0193411,0.0183994,0.0123551,0.00682742,0.037627,0.0265316,-0.000496878
1720.221,0.0166305,0.0217177,0.0566335,0.0276935,0.0190776,0.086542,0.0278305,0.024509,0.0188144,0.0174803,0.025382,0.0221357,0.00280607,0.0136086,0.0286219,0.00439987,0.0332841,0.0192538,0.0093176,0.0182329,0.0168865,0.0362869,0.0256824,0.0143667,0.0173292,0.0164208,0.0113009,0.00620793,0.0335422,0.0235472,-0.00146589
1724.078,0.0133775,0.0187939,0.050337,0.0262038,0.0183353,0.0789646,0.0261842,0.0231784,0.0171468,0.015791,0.0226408,0.0220139,0.00333103,0.0126778,0.025984,0.00429392,0.0294171,0.0173006,0.00780971,0.0157829,0.0142383,0.032393,0.0230199,0.0123458,0.015163,0.014431,0.010135,0.00574987,0.0301703,0.0204088,-0.00172037
1727.935,0.0118943,0.0160098,0.0452643,0.0248675,0.0172904,0.0723994,0.0245989,0.022276,0.015784,0.0145862,0.0199497,0.0214674,0.00378382,0.0113542,0.0233456,0.00408144,0.0260478,0.016075,0.00641819,0.0142297,0.0119772,0.0294783,0.0207037,0.0108091,0.0129296,0.0133505,0.00930746,0.00510277,0.0275346,0.017788,-0.00177579
1731.792,0.00895206,0.0137723,0.0409858,0.0237531,0.0156655,0.0664104,0.0228881,0.0215173,0.0145295,0.0139429,0.0169745,0.0196773,0.0038948,0.0105131,0.0206386,0.00380093,0.0231825,0.0147783,0.00517523,0.0132203,0.00977074,0.0270493,0.0188145,0.00962558,0.0108404,0.012877,0.00821628,0.00451657,0.025425,0.0158606,-0.00132707
1735.649,0.0113967,0.0118026,0.0362155,0.0224135,0.0137495,0.0601839,0.0209444,0.0204855,0.0130582,0.0131257,0.0142425,0.0176503,0.00378371,0.0100153,0.0181751,0.00350911,0.020534,0.0132694,0.00710947,0.0123883,0.00819753,0.0243276,0.0171906,0.0086604,0.00913161,0.0127624,0.00697687,0.00379087,0.0237392,0.0140281,-0.000314531
1739.506,0.0078545,0.0103234,0.0321599,0.0209509,0.0120662,0.0556937,0.0191232,0.01944,0.0116355,0.0126432,0.0120739,0.0155715,0.00337615,0.00961311,0.0163218,0.00309329,0.0182794,0.011537,0.00497942,0.0118137,0.00742903,0.0218542,0.0159425,0.00834049,0.00789341,0.0131267,0.00586349,0.00318714,0.0222211,0.0127278,0.000747497
1743.363,0.0077607,0.00966991,0.0283515,0.0186805,0.0106205,0.0516482,0.0173305,0.0183953,0.0100533,0.0119089,0.0103863,0.013514,0.0026823,0.00902039,0.0152206,0.00242677,0.0162178,0.00996995,0.00448975,0.0111851,0.00727921,0.0194122,0.0146772,0.00829873,0.00736654,0.0137103,0.00470228,0.00240516,0.0204917,0.0116263,0.00161248
1747.22,0.00666971,0.00943237,0.0252205,0.0160578,0.00933541,0.0481889,0.0156106,0.0170413,0.00855358,0.0106508,0.00952607,0.0116845,0.00184489,0.00823727,0.0145446,0.0016969,0.0144686,0.00863581,0.00414186,0.0104181,0.0072852,0.0168089,0.0131653,0.00864649,0.00746396,0.0139057,0.00367297,0.0016948,0.0187207,0.0104383,0.00237418
1751.077,0.00606993,0.00862212,0.0220857,0.0131241,0.0078747,0.0448201,0.0143151,0.0154724,0.00708291,0.00972073,0.00854328,0.0102828,0.00137405,0.0067121,0.014005,0.0010923,0.0127707,0.00744896,0.00365764,0.00908955,0.0065215,0.0141378,0.0108615,0.00875274,0.00773744,0.0135514,0.00291805,0.00122052,0.017153,0.00887396,0.00281546
1754.934,0.00489933,0.00781794,0.0195778,0.0102152,0.00664087,0.0421582,0.0130255,0.0143343,0.00575158,0.00859694,0.00771576,0.0090697,0.000510299,0.00517074,0.0135041,0.000631377,0.011379,0.00682019,0.00258533,0.0076568,0.00573789,0.0120797,0.00870459,0.00907316,0.00822361,0.0131077,0.00274527,0.000766575,0.015577,0.00747875,0.00252198
1758.791,0.004053,0.00727977,0.0173885,0.00783783,0.00560916,0.0398686,0.0117857,0.0136709,0.00469612,0.00687922,0.00695351,0.00786445,-0.000134883,0.00423731,0.0126658,0.000301714,0.010078,0.0063162,0.00257931,0.00617832,0.00507565,0.0101898,0.0066348,0.00938704,0.00880639,0.0120921,0.00260125,0.000326999,0.0141982,0.00640955,0.00183182
1762.648,0.00633659,0.00688606,0.0157292,0.00652823,0.00466157,0.0370723,0.0110649,0.0128673,0.00401572,0.00541139,0.00609994,0.00715397,-0.000734616,0.00423358,0.0116199,0.000104875,0.00902677,0.00578335,0.00278957,0.00436057,0.00413993,0.00846959,0.00499256,0.00919265,0.00914694,0.0105591,0.00232582,0.000396491,0.0126978,0.00537466,0.00123497
1766.505,0.00518957,0.00606717,0.0141526,0.00604395,0.00358697,0.0335901,0.0106093,0.0119298,0.00350886,0.00464079,0.00470133,0.0065692,-0.00115374,0.00474493,0.0102813,5.60214e-05,0.00768048,0.00504498,0.00179315,0.00249463,0.00343223,0.00698943,0.004089,0.00834143,0.00885788,0.00867619,0.00212492,0.000731501,0.0111479,0.00436592,0.000365619
1770.362,0.00599781,0.00495917,0.0126934,0.00596081,0.00276085,0.030052,0.0101309,0.0110659,0.0030698,0.00364376,0.00321506,0.00636845,-0.00148087,0.00523077,0.00888059,-6.89942e-05,0.00648461,0.00451608,0.00104711,0.00108524,0.0031253,0.00597869,0.00362434,0.00713933,0.0083423,0.00688827,0.00202683,0.000919093,0.00968909,0.00367488,-0.000710804
1774.219,0.00774966,0.0036332,0.0112168,0.00590895,0.00215579,0.0261735,0.00958464,0.00995444,0.0026838,0.00256608,0.00196432,0.00594987,-0.00158441,0.00509646,0.00727954,-0.000127446,0.00546794,0.00397116,0.0022116,0.000293197,0.00262266,0.00483852,0.00314685,0.00573205,0.0073296,0.00555477,0.00190856,0.000991943,0.00847154,0.00306198,-0.00173742
1778.076,0.00528915,0.0025156,0.00963834,0.00547325,0.00185813,0.0216782,0.00863129,0.00853639,0.00228712,0.00159741,0.000939815,0.00536842,-0.00128015,0.00449733,0.00561265,-7.39026e-05,0.00460925,0.00341615,0.00135904,-3.35348e-05,0.00167501,0.00407032,0.00273524,0.00434941,0.0057375,0.00490706,0.00171697,0.000861593,0.00746548,0.00282009,-0.00264055
1781.933,0.00546384,0.00117105,0.00805645,0.0047633,0.00177053,0.0172686,0.00739096,0.00679199,0.00195703,0.000724506,0.000296253,0.00478901,-0.000906982,0.00338923,0.00398427,8.31581e-05,0.00382734,0.002936,0.00116518,6.52072e-05,0.00103744,0.00339805,0.00243112,0.00308516,0.00399397,0.0046765,0.0015612,0.000687812,0.00615813,0.00241144,-0.00314744
1785.79,0.00233624,0.000498487,0.00672379,0.00376079,0.00188474,0.0123778,0.00590439,0.00479497,0.001644,-5.06079e-05,-1.07034e-05,0.00394223,-0.0002917,0.00241051,0.0024399,0.000186846,0.00297588,0.00235604,0.00123242,0.000333343,0.000447572,0.00276126,0.00206339,0.00200958,0.00228792,0.00434986,0.0013179,0.000520095,0.00478148,0.00187672,-0.00321147
1789.647,0.000508363,-0.000162812,0.00555618,0.00245842,0.00193966,0.00731174,0.00448153,0.00270245,0.0013139,-0.000193775,1.69176e-05,0.00343786,0.000141122,0.00150875,0.00107268,0.000394381,0.0022234,0.00173845,-6.06741e-05,0.000591969,-0.000303203,0.00221796,0.0019398,0.00108102,0.000424552,0.00395177,0.000887326,0.000511173,0.00301537,0.001322,-0.0025416
1793.504,0.00235027,-0.000784813,0.00451568,0.00125069,0.00207616,0.00298992,0.00296938,0.000974132,0.00103444,-3.17548e-05,0.000223404,0.00245661,0.000401465,0.000743104,0.000284205,0.000631447,0.00160109,0.00125362,0.001337,0.00113389,-0.000534954,0.00173449,0.0019797,0.00058882,-0.001015,0.00334424,0.000833838,0.000326707,0.00141804,0.00114844,-0.00186805
1797.361,0.000101334,-0.00109301,0.0034571,9.23163e-05,0.00230743,1.4803e-05,0.00157965,-0.000292561,0.000687273,1.64322e-05,0.000638766,0.00180836,0.000354334,0.000353555,1.97929e-05,0.000788261,0.00111308,0.000905554,0.000771843,0.00176872,-0.000303033,0.00112855,0.00181258,0.00040805,-0.0017743,0.00246816,0.000829826,4.80115e-06,0.000518833,0.00110907,-0.000923602
1801.218,1.8582e-05,-0.000814335,0.00246966,-0.000796753,0.00257949,-0.0015814,0.000416515,-0.00124697,0.000512643,6.07997e-05,0.00104967,0.00145274,0.000435936,-0.000131966,0.000176156,0.000929851,0.000698894,0.000536707,0.000531188,0.0021583,-1.05319e-05,0.000510295,0.00138031,0.000433375,-0.00224294,0.00137495,0.000885969,-0.000313842,0.000207608,0.00104349,2.13242e-05
1805.075,0.00029036,-9.13588e-05,0.00140115,-0.00128689,0.00287154,-0.00245736,-0.00065081,-0.00157822,0.000275732,-4.33454e-05,0.00122939,0.0013337,0.000526565,-0.00063636,0.000545431,0.00103596,0.000364293,0.000288958,0.000439115,0.00223922,7.93699e-05,1.85615e-05,0.000711931,0.000500079,-0.0021831,0.000110657,0.000877797,-0.000711349,-0.000144946,0.000927197,0.000802678
1808.932,-0.000917888,0.000547417,0.000291054,-0.00127264,0.00289383,-0.00321696,-0.00123432,-0.00169846,-3.78343e-05,-3.11651e-05,0.000808587,0.00106923,9.52189e-05,-0.000781382,0.000929678,0.0011166,0.000100721,-4.18956e-05,-0.00049178,0.00179967,0.000343422,-0.000698038,0.000109942,0.000130216,-0.0016124,-0.00112478,0.000769043,-0.000960205,-0.000190724,0.000244728,0.0016665
1812.789,2.92341e-05,0.00104482,-0.000565059,-0.000948052,0.00291573,-0.00361912,-0.00150585,-0.00134233,-0.00031329,-0.000182141,6.71336e-05,0.000783668,-0.000249606,-0.00089685,0.00121871,0.00109524,-8.0088e-05,-0.00027265,-9.28781e-06,0.00103293,0.00060745,-0.00130658,-0.000685877,-0.000215623,-0.000727962,-0.00191553,0.000495552,-0.00119403,-0.000418082,-0.000282276,0.00233036
1816.646,-0.000631937,0.00103624,-0.00114993,-0.000410942,0.00273043,-0.00400674,-0.00140863,-0.000767821,-0.000466319,-0.000261714,-0.000664772,0.00068955,-0.000584751,-0.000955431,0.00105989,0.00108669,-0.00034837,-0.000435508,-4.6115e-05,-8.77204e-05,0.000444268,-0.0018633,-0.00132097,-0.000746886,-4.05959e-05,-0.00217361,-4.4528e-05,-0.00121922,-0.000988425,-0.000563159,0.00258553
1818.574,-0.000159487,0.000970537,-0.0014064,5.19166e-05,0.00245206,-0.00426467,-0.00125409,-0.000579484,-0.000511791,-0.000162729,-0.00104915,0.000657355,-0.000712849,-0.000795314,0.000894141,0.00108543,-0.000386153,-0.000558063,-0.00024415,-0.000675869,0.000352142,-0.00215912,-0.0015582,-0.00106271,0.000390107,-0.00214458,-0.000369227,-0.00115429,-0.00134437,-0.000638943,0.00251663