File: Glass FTIR Baseline Share With Sarah 2023/CO2_free_baselines_Water_removed_5-19-21.csv
Wavenumber,WD23MI02,WD33MI03,SH55MI02,SH54MI11,SH63MI02,WD71AMI01,SH63MI10,SH01MI11,SH01MI05,SH63MI39,WD23MI03A,FI38MI01C,SH01MI12B,CV09EMI05,FI38MI01B,SH01MI12A,OK14MI07,OK14MI12,AK96MI13,OK14MI01,WD35MI04A,SH63MI43,OK14MI06C,Terry3MI04A,FI45MI02,AK96MI08,WD70MI03,Terry3MI03,JFL19BMI11,WD12MI04A,FI45MI05,WD70MI01A,WD35MI02,WD07MI01A,FI45MI06,OK14MI08,WD70MI01B,WD12MI06,WD35MI01,OK14MI09,WD07MI01B,SH63MI53,FI38MI05A,SH58MI01,SH63MI34,SH01MI21,OK17MI05A,SH63MI22,FI45MI04A,SH63MI27,JFL30AMI12,VS73MI02,SH63MI25,SH63MI31,SH63MI24
1276.666,1.14474,0.809137,0.901339,0.680846,1.64411,1.36309,0.822427,0.911729,0.595285,1.0346,2.14877,0.510849,1.18558,0.614533,0.520746,1.0734,1.70304,0.825643,0.735252,0.892139,0.823824,0.838836,0.405243,0.509925,0.870219,0.661414,0.626974,0.935146,0.926324,0.940512,0.793956,0.758756,0.889702,0.826819,0.87083,0.959792,0.756172,1.07691,0.941017,1.11017,0.947907,0.64279,0.785106,1.15512,1.11597,1.01806,0.563135,0.594477,0.882595,0.779575,0.970741,0.927981,0.881958,1.05484,0.950888
1288.237,1.02853,0.722651,0.761383,0.579003,1.43279,1.2181,0.720575,0.823174,0.525877,0.878268,1.95572,0.429743,1.07854,0.540094,0.443192,0.957912,1.511,0.73224,0.633969,0.803921,0.736966,0.740343,0.356848,0.424701,0.791058,0.576708,0.560502,0.826003,0.83153,0.838111,0.715023,0.677578,0.811532,0.73978,0.78063,0.842981,0.673742,0.9534,0.85457,0.982146,0.845918,0.576205,0.700665,1.02302,0.978625,0.875882,0.499797,0.506016,0.784121,0.681581,0.857024,0.810987,0.761587,0.927474,0.833185
1299.808,0.934842,0.651768,0.656301,0.501629,1.27216,1.09916,0.638879,0.753436,0.471099,0.760396,1.7952,0.36386,0.989748,0.481417,0.381183,0.868593,1.3579,0.657417,0.556637,0.730756,0.667755,0.661925,0.319075,0.357194,0.723165,0.510542,0.507121,0.74008,0.753113,0.755621,0.650194,0.612375,0.747879,0.66945,0.707196,0.749098,0.607302,0.85541,0.784162,0.881118,0.762973,0.527421,0.632449,0.920665,0.870662,0.768496,0.449721,0.438725,0.704767,0.607379,0.766846,0.718078,0.669906,0.826447,0.741998
1311.379,0.859652,0.594247,0.579092,0.443803,1.15131,1.00229,0.574057,0.699051,0.428438,0.67334,1.66263,0.3108,0.91653,0.435753,0.332121,0.800317,1.23708,0.597963,0.498556,0.670448,0.613098,0.600058,0.289986,0.30444,0.665588,0.459377,0.464792,0.67328,0.688839,0.69017,0.5973,0.560539,0.696473,0.613172,0.648024,0.674302,0.554327,0.778727,0.727173,0.802328,0.696217,0.492662,0.577883,0.842372,0.786881,0.689034,0.410631,0.388385,0.641618,0.551818,0.696113,0.644981,0.601177,0.746993,0.672096
1322.95,0.799382,0.54803,0.523556,0.401182,1.06075,0.923921,0.523136,0.656941,0.395634,0.610332,1.55383,0.26839,0.856448,0.400631,0.293666,0.748548,1.14254,0.551006,0.455555,0.620993,0.57023,0.551585,0.267848,0.263757,0.617372,0.420076,0.431657,0.621929,0.636652,0.639094,0.554374,0.519712,0.655254,0.56854,0.60083,0.615119,0.512529,0.719532,0.681253,0.741507,0.643043,0.468605,0.534633,0.783089,0.722617,0.631403,0.380482,0.351263,0.592016,0.510402,0.641156,0.587888,0.55033,0.684863,0.618863
1334.521,0.750899,0.511247,0.484292,0.369998,0.992305,0.860831,0.48345,0.624408,0.370683,0.565474,1.46499,0.234689,0.807317,0.373863,0.263743,0.70934,1.06895,0.514004,0.42399,0.580577,0.536719,0.513714,0.251136,0.23275,0.577562,0.389903,0.40604,0.582777,0.594673,0.599941,0.519652,0.487788,0.622378,0.533402,0.563553,0.568442,0.47985,0.674404,0.644319,0.694878,0.601092,0.452369,0.500606,0.738399,0.673744,0.590278,0.357455,0.324115,0.553556,0.479285,0.598738,0.543443,0.512956,0.636331,0.578295
1346.092,0.71151,0.482217,0.456691,0.347055,0.939175,0.810187,0.45264,0.599143,0.35183,0.533736,1.39268,0.207982,0.767199,0.353538,0.240541,0.679334,1.01161,0.484751,0.400733,0.547578,0.510457,0.484012,0.238529,0.20931,0.5452,0.366515,0.386448,0.552993,0.5612,0.570473,0.491574,0.462912,0.596213,0.505856,0.534349,0.531543,0.45447,0.640318,0.614558,0.659158,0.568252,0.44152,0.473956,0.704513,0.636671,0.561098,0.339962,0.304185,0.524092,0.455265,0.566047,0.508747,0.485302,0.598181,0.546992
1357.663,0.678967,0.459446,0.436932,0.329723,0.895883,0.769532,0.428656,0.57922,0.337575,0.510944,1.33388,0.186791,0.734401,0.338027,0.222512,0.655756,0.966523,0.461374,0.383175,0.520566,0.489668,0.460406,0.22891,0.191616,0.519338,0.347959,0.371571,0.530166,0.534702,0.548661,0.468793,0.443484,0.575343,0.484253,0.5116,0.502068,0.434808,0.614647,0.590427,0.631551,0.542659,0.434064,0.453082,0.678268,0.608345,0.540056,0.326642,0.289199,0.501732,0.435778,0.5407,0.481349,0.464267,0.567712,0.522149
1369.234,0.650848,0.441481,0.420912,0.315318,0.855974,0.735821,0.409273,0.562566,0.326321,0.492844,1.2858,0.169665,0.706962,0.325602,0.208203,0.635557,0.929922,0.441903,0.36861,0.498116,0.472505,0.440712,0.221175,0.177825,0.498939,0.331959,0.35999,0.511592,0.513592,0.532235,0.450014,0.42794,0.5583,0.466868,0.493593,0.478531,0.419184,0.59448,0.570136,0.609198,0.522385,0.42789,0.436429,0.656275,0.585633,0.523149,0.316105,0.276897,0.484436,0.417983,0.519889,0.458688,0.44648,0.542209,0.500507
1380.805,0.626058,0.427417,0.407331,0.302855,0.818685,0.708505,0.393704,0.548462,0.317493,0.477718,1.2463,0.15576,0.684032,0.315604,0.19662,0.617824,0.899534,0.425543,0.355966,0.479657,0.458243,0.424217,0.21482,0.166901,0.483449,0.318072,0.351108,0.496592,0.497072,0.520304,0.434312,0.415342,0.544358,0.452918,0.479483,0.458428,0.406909,0.578932,0.553057,0.590853,0.506394,0.4223,0.42291,0.637459,0.56691,0.509023,0.307661,0.266336,0.471556,0.401304,0.50304,0.43977,0.431058,0.520263,0.481657
1392.376,0.605015,0.416457,0.396387,0.292224,0.785881,0.687381,0.381334,0.537242,0.310694,0.465407,1.21364,0.144576,0.665884,0.307694,0.187366,0.602899,0.873297,0.412197,0.344941,0.464191,0.446731,0.409786,0.20962,0.158543,0.471698,0.306332,0.344522,0.484592,0.483941,0.511895,0.421581,0.405228,0.532975,0.441952,0.468916,0.440521,0.397519,0.567106,0.539468,0.575993,0.49411,0.417718,0.412257,0.621598,0.552032,0.497164,0.301044,0.257538,0.461821,0.386375,0.490351,0.423836,0.417751,0.501992,0.46563
1403.947,0.58736,0.407705,0.387105,0.283164,0.756958,0.670974,0.370784,0.528041,0.305351,0.455256,1.18704,0.135575,0.651488,0.301188,0.180504,0.590379,0.850344,0.400842,0.334979,0.450802,0.437128,0.396949,0.205095,0.151966,0.462334,0.29607,0.33942,0.474752,0.473391,0.505208,0.411255,0.397073,0.52368,0.433046,0.460771,0.424649,0.389982,0.55757,0.528758,0.563491,0.484372,0.413379,0.404238,0.607906,0.539997,0.487051,0.295639,0.250317,0.454209,0.373222,0.480178,0.410564,0.406166,0.486565,0.451562
1415.518,0.572245,0.400273,0.378572,0.275578,0.730612,0.657956,0.361038,0.520327,0.300718,0.446311,1.16497,0.128322,0.639599,0.295668,0.175394,0.579504,0.830958,0.390759,0.325903,0.438791,0.429031,0.385742,0.200977,0.146126,0.454567,0.286724,0.335221,0.465892,0.465095,0.498726,0.402758,0.390419,0.516031,0.425488,0.454119,0.410935,0.383693,0.548948,0.520072,0.552257,0.475915,0.409273,0.397592,0.595622,0.529558,0.477276,0.291055,0.244232,0.44799,0.362035,0.471659,0.399802,0.395978,0.473029,0.439129
1427.089,0.558694,0.394282,0.370091,0.269017,0.706774,0.647259,0.35159,0.514298,0.296184,0.438375,1.14596,0.12254,0.629067,0.290852,0.171356,0.569396,0.813824,0.381688,0.317117,0.428051,0.422424,0.375657,0.197269,0.14046,0.44781,0.277929,0.331516,0.4575,0.457979,0.491535,0.395472,0.384795,0.509516,0.418855,0.448525,0.398925,0.37861,0.540445,0.512462,0.542144,0.468289,0.405044,0.391513,0.584025,0.519961,0.467621,0.287011,0.238725,0.4431,0.352465,0.464331,0.390561,0.38667,0.460597,0.428012
1438.66,0.546302,0.389545,0.361726,0.263368,0.685552,0.638789,0.342487,0.50935,0.291912,0.431044,1.12978,0.117883,0.619888,0.28658,0.168187,0.56042,0.797547,0.373765,0.308086,0.418357,0.417275,0.366686,0.19413,0.135037,0.441768,0.269615,0.328146,0.449296,0.451235,0.483665,0.388942,0.380075,0.503936,0.412992,0.443832,0.388693,0.374394,0.531766,0.50617,0.533166,0.461321,0.40099,0.386507,0.573194,0.511265,0.458113,0.28323,0.233581,0.438812,0.344277,0.45775,0.382171,0.377858,0.448833,0.417726
1450.231,0.535889,0.385523,0.353662,0.258347,0.666551,0.631374,0.334066,0.505165,0.288069,0.424185,1.1161,0.114145,0.611447,0.282549,0.165952,0.552357,0.782249,0.366552,0.298925,0.409856,0.412883,0.358058,0.191566,0.13,0.436428,0.262012,0.325084,0.441441,0.445272,0.475886,0.383349,0.376151,0.499177,0.40809,0.44008,0.379671,0.37069,0.523755,0.501177,0.525144,0.454883,0.397302,0.382561,0.563587,0.503035,0.449155,0.27965,0.228765,0.435421,0.337428,0.451389,0.37498,0.36935,0.438073,0.408219
1461.802,0.526925,0.380249,0.345792,0.253836,0.652191,0.622494,0.32967,0.501202,0.28447,0.418239,1.10262,0.112361,0.602306,0.276524,0.163618,0.54543,0.770071,0.361195,0.290855,0.401485,0.408475,0.350517,0.189677,0.125669,0.431066,0.258016,0.320112,0.43476,0.439385,0.467627,0.377291,0.37288,0.492482,0.402127,0.434097,0.369479,0.366601,0.514469,0.496605,0.518414,0.449209,0.393628,0.379322,0.556231,0.495194,0.441313,0.276394,0.224069,0.429865,0.334371,0.444187,0.369896,0.361599,0.429158,0.402916
1473.373,0.51962,0.375665,0.339039,0.249907,0.64042,0.614892,0.326382,0.497899,0.281509,0.412927,1.09167,0.110946,0.594596,0.271188,0.161855,0.539428,0.759913,0.356892,0.284077,0.394569,0.404869,0.344091,0.188163,0.122083,0.426738,0.255159,0.315748,0.42926,0.434015,0.460652,0.372003,0.370289,0.486845,0.396836,0.428884,0.360736,0.363278,0.506687,0.493048,0.512833,0.444669,0.390105,0.376709,0.550165,0.488762,0.434529,0.273676,0.2199,0.424967,0.332232,0.438082,0.365832,0.354876,0.421364,0.39869
1484.944,0.512926,0.371703,0.333546,0.246641,0.630339,0.607937,0.323844,0.49474,0.278703,0.408869,1.08168,0.109918,0.587484,0.266253,0.159944,0.534473,0.751154,0.353083,0.278009,0.388656,0.401762,0.338569,0.186871,0.119112,0.422629,0.25251,0.311529,0.424274,0.42945,0.454259,0.367548,0.367996,0.481365,0.392165,0.424268,0.353904,0.360047,0.499279,0.489644,0.507564,0.440448,0.387047,0.374485,0.544943,0.482768,0.42871,0.271148,0.216305,0.4209,0.330318,0.432545,0.363018,0.349237,0.415058,0.395301
1496.515,0.507211,0.368924,0.328776,0.244082,0.62138,0.602594,0.322257,0.492497,0.276131,0.406014,1.07421,0.109639,0.581616,0.261764,0.159135,0.530796,0.744442,0.350221,0.272126,0.384174,0.399638,0.333888,0.185975,0.117124,0.419388,0.250245,0.307432,0.420067,0.42619,0.448311,0.364379,0.366293,0.476412,0.388777,0.420761,0.348678,0.357155,0.492305,0.486882,0.502684,0.437037,0.384735,0.373247,0.540626,0.477594,0.423782,0.269292,0.213063,0.418217,0.328834,0.42783,0.362001,0.344495,0.410559,0.393163
1508.086,0.503626,0.367723,0.325472,0.242527,0.615097,0.59975,0.321466,0.491553,0.274572,0.404288,1.07083,0.10977,0.578126,0.258703,0.159635,0.528318,0.740325,0.348636,0.267602,0.381749,0.398874,0.330573,0.18562,0.116257,0.417876,0.248914,0.304688,0.417385,0.424267,0.444253,0.362636,0.365579,0.473457,0.386914,0.419091,0.345647,0.355631,0.487764,0.485626,0.499533,0.43535,0.382853,0.373095,0.537846,0.474529,0.420297,0.26835,0.210763,0.417318,0.328037,0.424992,0.362129,0.341151,0.407602,0.391865
1519.657,0.499473,0.365873,0.322038,0.240968,0.608919,0.595582,0.320546,0.489857,0.272901,0.402681,1.06529,0.109873,0.573747,0.255041,0.158988,0.52543,0.735305,0.346656,0.263102,0.37827,0.3975,0.327172,0.185108,0.114903,0.415603,0.247502,0.30161,0.414281,0.422272,0.439648,0.360126,0.364493,0.469553,0.384052,0.416452,0.342239,0.353751,0.482446,0.48379,0.496338,0.433168,0.380551,0.37247,0.534864,0.470786,0.416561,0.266915,0.208665,0.415499,0.327294,0.421594,0.361442,0.337635,0.404187,0.390334
1531.228,0.495659,0.364216,0.319173,0.239734,0.603693,0.591561,0.319879,0.488148,0.271414,0.401594,1.05996,0.110088,0.56963,0.251568,0.15811,0.522855,0.730759,0.344865,0.259075,0.375062,0.396272,0.324205,0.184686,0.113721,0.413426,0.246268,0.29873,0.411432,0.420625,0.43539,0.357807,0.363525,0.465762,0.381268,0.41397,0.339585,0.352026,0.47745,0.482059,0.493515,0.431191,0.378287,0.37194,0.532291,0.467309,0.413245,0.265506,0.206945,0.413886,0.32672,0.418492,0.36096,0.334589,0.401223,0.389032
1542.799,0.491991,0.362801,0.31681,0.238864,0.599078,0.587695,0.319588,0.486524,0.27,0.401231,1.05482,0.110545,0.565619,0.248157,0.15723,0.520743,0.726816,0.343316,0.255293,0.372094,0.395227,0.321611,0.184384,0.11283,0.411268,0.245149,0.295825,0.40881,0.419408,0.431252,0.355753,0.362687,0.46187,0.378706,0.411644,0.337573,0.350297,0.472469,0.480335,0.490876,0.429339,0.376307,0.371612,0.530085,0.464002,0.410419,0.264215,0.205526,0.412568,0.326312,0.415567,0.360988,0.332019,0.398905,0.388185
1554.37,0.488677,0.361146,0.315292,0.238042,0.5957,0.583627,0.318973,0.484506,0.268938,0.400714,1.04939,0.11043,0.561762,0.245351,0.155504,0.518361,0.722615,0.341542,0.252596,0.369227,0.394016,0.319302,0.184002,0.111706,0.409106,0.244149,0.293681,0.40638,0.417654,0.428119,0.353448,0.361836,0.458634,0.375804,0.409393,0.33612,0.348957,0.468667,0.478728,0.488858,0.427586,0.373922,0.370821,0.528131,0.461134,0.407924,0.26267,0.204536,0.411069,0.325802,0.413049,0.36021,0.329843,0.396108,0.386677
1565.941,0.485801,0.359354,0.314318,0.237202,0.593411,0.579505,0.318091,0.482177,0.268166,0.399898,1.04395,0.1099,0.55822,0.243013,0.153079,0.51573,0.718203,0.339616,0.250709,0.366542,0.39271,0.317242,0.183547,0.110351,0.407051,0.243272,0.292168,0.404084,0.415575,0.425768,0.351006,0.360968,0.455986,0.372614,0.407227,0.335212,0.347984,0.465803,0.477303,0.487327,0.425977,0.37106,0.369693,0.526376,0.458589,0.405519,0.260892,0.203846,0.409435,0.325233,0.410891,0.358783,0.327891,0.392942,0.384616
1577.512,0.483674,0.358116,0.313035,0.236196,0.591151,0.576568,0.317199,0.480432,0.267528,0.39848,1.04052,0.109436,0.555748,0.241079,0.15149,0.513207,0.714321,0.338007,0.248655,0.364754,0.391904,0.31522,0.183172,0.109198,0.40582,0.242534,0.290997,0.402042,0.413702,0.423778,0.349172,0.360357,0.454233,0.37006,0.40579,0.334581,0.347442,0.463561,0.476534,0.485868,0.424898,0.368105,0.368955,0.524708,0.456508,0.402843,0.259412,0.202885,0.40842,0.32468,0.409218,0.357752,0.325768,0.389953,0.38257
1589.083,0.482212,0.357253,0.311371,0.235057,0.589059,0.574425,0.316252,0.479064,0.267063,0.396495,1.03849,0.109047,0.554148,0.239368,0.150392,0.510622,0.710695,0.336632,0.246487,0.3635,0.391422,0.313247,0.182842,0.108083,0.405243,0.241984,0.290133,0.400169,0.412091,0.422012,0.347669,0.359909,0.453129,0.36779,0.404774,0.334082,0.347308,0.461783,0.476312,0.484608,0.424285,0.364855,0.368484,0.52311,0.454754,0.399814,0.258088,0.201779,0.407712,0.324228,0.407914,0.35675,0.323413,0.386953,0.380449
1600.654,0.481306,0.356889,0.309346,0.2337,0.586717,0.573373,0.3153,0.478248,0.266613,0.393921,1.03831,0.108726,0.553436,0.237978,0.150154,0.50817,0.70754,0.335517,0.244008,0.363091,0.391396,0.311217,0.182574,0.107177,0.405368,0.241473,0.289458,0.39846,0.410602,0.420456,0.346772,0.359672,0.452763,0.366179,0.404435,0.333764,0.347457,0.460407,0.476619,0.483209,0.424061,0.361621,0.368382,0.5215,0.453319,0.39649,0.257051,0.200301,0.407608,0.323717,0.406958,0.356269,0.320842,0.384159,0.378384
1612.225,0.480468,0.356869,0.307021,0.232102,0.583651,0.573086,0.314418,0.477849,0.265924,0.391002,1.03937,0.108494,0.553094,0.236713,0.150703,0.50598,0.704774,0.334531,0.241007,0.363361,0.391698,0.308993,0.182333,0.106524,0.405818,0.240777,0.288608,0.396734,0.409066,0.418794,0.346452,0.359544,0.452684,0.365246,0.404607,0.333524,0.34751,0.458915,0.477096,0.481237,0.423861,0.358708,0.368569,0.519728,0.451872,0.392963,0.25626,0.198329,0.40806,0.322996,0.406036,0.356626,0.31809,0.381725,0.376533
1623.796,0.479312,0.356606,0.304559,0.230249,0.580251,0.572462,0.313412,0.477143,0.264965,0.387781,1.03988,0.108149,0.552434,0.235278,0.150884,0.503676,0.701613,0.333278,0.237795,0.363545,0.391797,0.306574,0.181964,0.10568,0.405964,0.239826,0.287507,0.394691,0.407226,0.416874,0.346065,0.359215,0.452318,0.364138,0.404563,0.333265,0.347255,0.456997,0.477283,0.478755,0.423279,0.355707,0.368527,0.517683,0.449965,0.389131,0.255244,0.196109,0.408315,0.322037,0.404799,0.357021,0.315143,0.379185,0.374528
1635.367,0.477943,0.355876,0.302378,0.228325,0.577294,0.571076,0.312164,0.475845,0.264014,0.384444,1.03917,0.107491,0.551337,0.233805,0.150097,0.501047,0.697825,0.331663,0.234996,0.363303,0.391494,0.304166,0.181451,0.10447,0.405673,0.238793,0.28651,0.392445,0.404991,0.415079,0.345225,0.358655,0.451743,0.362413,0.404078,0.333075,0.346905,0.455125,0.477168,0.476335,0.422388,0.352343,0.367999,0.515562,0.44781,0.385249,0.253838,0.194069,0.408045,0.32096,0.40339,0.356747,0.312234,0.376204,0.372082
1646.938,0.476484,0.354985,0.300301,0.226576,0.574514,0.569323,0.310875,0.47446,0.263239,0.381374,1.03785,0.106799,0.549993,0.232271,0.149139,0.498262,0.693868,0.330031,0.232432,0.362594,0.391042,0.301805,0.18096,0.103184,0.405248,0.2379,0.28562,0.390274,0.402777,0.413331,0.344019,0.358089,0.451043,0.360389,0.403345,0.332574,0.346652,0.453367,0.477002,0.474322,0.421548,0.348923,0.367382,0.513525,0.445778,0.381567,0.252408,0.192306,0.407496,0.320042,0.401981,0.355974,0.30941,0.372957,0.369554
1658.509,0.475099,0.354104,0.298403,0.22516,0.572137,0.567385,0.309705,0.473128,0.262721,0.378818,1.03621,0.106228,0.548576,0.230689,0.148157,0.495485,0.69004,0.328551,0.230145,0.361529,0.390573,0.299642,0.180563,0.101959,0.404819,0.237258,0.284861,0.388314,0.400871,0.411658,0.342574,0.357612,0.450246,0.358189,0.402466,0.331936,0.346579,0.451769,0.476893,0.472879,0.420926,0.345522,0.36684,0.511736,0.444012,0.378229,0.251056,0.190939,0.406818,0.319419,0.400695,0.354873,0.306802,0.369686,0.367153
1670.08,0.474003,0.353601,0.296941,0.224267,0.570354,0.565794,0.308952,0.472156,0.262472,0.377157,1.03506,0.105983,0.547409,0.229224,0.147571,0.493163,0.687002,0.327497,0.228142,0.360608,0.390401,0.297891,0.180379,0.10114,0.404621,0.236923,0.284221,0.386789,0.399584,0.410191,0.34134,0.357407,0.449511,0.356303,0.401834,0.331652,0.346726,0.450429,0.476995,0.472004,0.420707,0.342483,0.366679,0.510436,0.442743,0.375548,0.250018,0.190011,0.406504,0.319155,0.399754,0.354134,0.304703,0.366995,0.365289
1681.651,0.472539,0.353077,0.296118,0.223902,0.568977,0.563711,0.30867,0.471042,0.262194,0.376747,1.03298,0.106045,0.545661,0.227518,0.146705,0.491338,0.684388,0.326572,0.226364,0.359366,0.39017,0.296475,0.180311,0.100595,0.403958,0.236627,0.283252,0.385375,0.398708,0.408516,0.340054,0.357223,0.448053,0.354369,0.400949,0.331736,0.346571,0.448606,0.476702,0.471248,0.420318,0.339946,0.366598,0.509463,0.441384,0.373601,0.249019,0.189532,0.406192,0.319096,0.398676,0.353832,0.303201,0.364963,0.364035
1693.222,0.470479,0.352307,0.296224,0.223953,0.568065,0.56084,0.308747,0.469478,0.261753,0.377516,1.02944,0.106176,0.543044,0.225649,0.14511,0.489975,0.681957,0.325536,0.224988,0.357813,0.389708,0.29535,0.180264,0.100213,0.402544,0.236179,0.281935,0.383925,0.397842,0.406744,0.338655,0.356931,0.445798,0.352272,0.399725,0.3324,0.345929,0.446295,0.475771,0.470355,0.419455,0.337913,0.366321,0.508722,0.439743,0.372426,0.247869,0.189461,0.405778,0.319007,0.397332,0.35395,0.302386,0.363515,0.363193
1704.793,0.468057,0.351307,0.297212,0.224276,0.567758,0.557374,0.309011,0.467472,0.261227,0.379058,1.02482,0.106214,0.539838,0.223811,0.142763,0.488912,0.679602,0.324344,0.224127,0.356133,0.389043,0.294494,0.180199,0.0998954,0.400569,0.235604,0.280513,0.382459,0.396823,0.405127,0.337172,0.356543,0.443115,0.350011,0.398297,0.333698,0.344981,0.443865,0.474381,0.469405,0.418227,0.336161,0.365782,0.508185,0.437947,0.371856,0.246532,0.189734,0.405281,0.318824,0.395873,0.354276,0.302155,0.362426,0.3625
1716.364,0.465171,0.349864,0.298912,0.224846,0.568179,0.552861,0.309413,0.46474,0.260593,0.381311,1.01841,0.1062,0.535839,0.221735,0.139203,0.487958,0.676968,0.322873,0.223744,0.353957,0.387965,0.293896,0.180054,0.0994161,0.397821,0.234909,0.278867,0.380805,0.395734,0.403416,0.335334,0.355911,0.439662,0.347162,0.396285,0.335528,0.343638,0.440994,0.472377,0.468407,0.416503,0.334401,0.36483,0.507778,0.435712,0.371662,0.244797,0.190415,0.404331,0.318611,0.394103,0.354463,0.30237,0.361522,0.361858
1727.935,0.462476,0.348485,0.300958,0.225626,0.569326,0.548281,0.309998,0.461872,0.260047,0.383911,1.01188,0.106298,0.531947,0.219674,0.135275,0.487186,0.67455,0.321484,0.223655,0.35187,0.386914,0.293608,0.179942,0.0989776,0.395042,0.23432,0.277278,0.379242,0.394936,0.401827,0.333565,0.355296,0.436124,0.344223,0.394241,0.337921,0.342332,0.438169,0.470365,0.467611,0.414845,0.332567,0.363888,0.507628,0.433511,0.371663,0.242986,0.191368,0.403404,0.318525,0.39245,0.354738,0.302869,0.360929,0.36137
1739.506,0.460365,0.347353,0.303143,0.226413,0.571158,0.544203,0.310583,0.459114,0.259689,0.386278,1.00623,0.10637,0.528713,0.217926,0.131344,0.486461,0.672401,0.320237,0.223846,0.350288,0.386077,0.293557,0.179859,0.0985687,0.392671,0.233889,0.276055,0.377869,0.394301,0.400671,0.332067,0.354797,0.433125,0.341431,0.392531,0.340865,0.341356,0.435909,0.468716,0.467087,0.413514,0.33048,0.363037,0.507693,0.43162,0.371616,0.2412,0.192405,0.402718,0.318498,0.391177,0.355028,0.303462,0.360448,0.360795
1751.077,0.458772,0.3466,0.305082,0.226976,0.572927,0.541009,0.311111,0.456733,0.259356,0.388047,1.0021,0.106428,0.526263,0.216498,0.127975,0.485797,0.670573,0.319157,0.22387,0.349457,0.385591,0.293479,0.179798,0.0982731,0.390883,0.23348,0.275059,0.376613,0.393694,0.399778,0.331065,0.354448,0.430811,0.339129,0.391383,0.344071,0.340641,0.434078,0.467516,0.466452,0.41249,0.328303,0.362419,0.507749,0.429984,0.371276,0.239586,0.19314,0.402503,0.318384,0.390221,0.355673,0.303877,0.360082,0.360164
1762.648,0.457165,0.346052,0.306221,0.227116,0.573764,0.538306,0.311643,0.454576,0.258648,0.389128,0.998816,0.106686,0.524105,0.214839,0.125133,0.485185,0.668755,0.318094,0.223017,0.349056,0.385281,0.293073,0.179683,0.0979912,0.389307,0.232832,0.273645,0.375069,0.393165,0.398335,0.330495,0.354045,0.428443,0.337185,0.390418,0.347158,0.339689,0.431603,0.466378,0.465009,0.41135,0.326121,0.362024,0.507434,0.42792,0.370225,0.238028,0.193215,0.402539,0.318076,0.389034,0.356973,0.303747,0.359927,0.359679
1774.219,0.454876,0.344992,0.306438,0.226711,0.57353,0.534783,0.311928,0.451884,0.257403,0.389461,0.994245,0.106962,0.521273,0.212443,0.121729,0.484138,0.665926,0.316558,0.221304,0.348069,0.384504,0.292124,0.179321,0.0972081,0.387155,0.231771,0.271515,0.372774,0.392358,0.395873,0.329576,0.353196,0.425188,0.334654,0.388728,0.34962,0.338116,0.427811,0.464693,0.462589,0.409515,0.323564,0.361292,0.506435,0.42475,0.368187,0.236032,0.192714,0.401918,0.317491,0.387028,0.358082,0.302844,0.359367,0.358959
1785.79,0.451797,0.343123,0.306107,0.225603,0.572351,0.530202,0.311613,0.448402,0.25568,0.388745,0.988005,0.106751,0.51757,0.209656,0.11738,0.482376,0.661684,0.314252,0.219195,0.346445,0.383057,0.290535,0.178608,0.0957334,0.384277,0.230187,0.269013,0.369704,0.390564,0.392889,0.328071,0.351822,0.421392,0.331371,0.386323,0.351408,0.336,0.423288,0.462386,0.459266,0.40683,0.320521,0.359833,0.504657,0.420604,0.365277,0.233439,0.191669,0.400473,0.31637,0.384265,0.358501,0.301245,0.357883,0.357462
1797.361,0.448074,0.340482,0.30535,0.22371,0.570275,0.524802,0.310554,0.444214,0.253563,0.386748,0.980504,0.105848,0.513189,0.206765,0.112207,0.479827,0.656041,0.311154,0.216869,0.344404,0.381006,0.288277,0.177532,0.0935735,0.380842,0.228081,0.2664,0.365951,0.387526,0.389731,0.326041,0.349984,0.417473,0.327471,0.383433,0.352547,0.333505,0.418503,0.45961,0.455128,0.403391,0.316976,0.357602,0.502103,0.415716,0.361537,0.230297,0.190042,0.398328,0.314617,0.380924,0.358133,0.29897,0.355308,0.354977
1808.932,0.443952,0.337271,0.304123,0.221182,0.567514,0.518831,0.308889,0.439518,0.25118,0.383635,0.972155,0.104434,0.508401,0.203776,0.106444,0.476598,0.64928,0.307469,0.214332,0.342034,0.378505,0.285491,0.176178,0.090846,0.377068,0.225622,0.263742,0.361675,0.383589,0.386422,0.32359,0.347794,0.413519,0.323064,0.380166,0.353115,0.330792,0.413549,0.456557,0.450426,0.399448,0.312934,0.354802,0.498941,0.410281,0.357043,0.226736,0.18795,0.395616,0.312418,0.377167,0.357055,0.296084,0.351814,0.351686
1820.503,0.439341,0.333737,0.301813,0.218094,0.56362,0.512173,0.306715,0.434513,0.248474,0.379581,0.962931,0.102563,0.503184,0.200451,0.100583,0.472792,0.641562,0.303497,0.211057,0.339342,0.375627,0.28224,0.174606,0.0877521,0.373024,0.222784,0.260747,0.356937,0.379389,0.382544,0.320725,0.345214,0.409373,0.318372,0.376574,0.352696,0.327649,0.408015,0.453219,0.445445,0.395068,0.308449,0.351698,0.494991,0.404256,0.351777,0.223025,0.185297,0.392326,0.309815,0.372912,0.355425,0.292578,0.347743,0.347782
1832.074,0.433066,0.329951,0.297525,0.214611,0.557559,0.50296,0.303623,0.428731,0.245519,0.374735,0.950694,0.0991917,0.496517,0.196441,0.0941926,0.468561,0.632224,0.299403,0.206146,0.336133,0.372003,0.278911,0.172661,0.0844336,0.367894,0.218732,0.256878,0.351525,0.375987,0.377577,0.316926,0.341776,0.404232,0.313357,0.372566,0.351079,0.323095,0.401229,0.448781,0.441004,0.389412,0.303225,0.347706,0.489496,0.397059,0.346019,0.219282,0.18207,0.387961,0.305869,0.367671,0.352886,0.289044,0.343052,0.342221
1843.645,0.426708,0.326235,0.293046,0.211015,0.550778,0.494129,0.300147,0.423283,0.242746,0.368887,0.939498,0.0956087,0.490391,0.192515,0.087847,0.464356,0.622846,0.29517,0.200624,0.332944,0.368421,0.275267,0.170618,0.0809693,0.362882,0.214158,0.253201,0.34581,0.372442,0.372653,0.313582,0.338671,0.398999,0.308307,0.368641,0.349741,0.318907,0.394484,0.444399,0.436206,0.383504,0.298228,0.343112,0.484057,0.389695,0.33973,0.215381,0.17862,0.384088,0.30136,0.362406,0.350028,0.28529,0.337374,0.336097
1855.216,0.420102,0.322325,0.288363,0.207195,0.543692,0.48542,0.296181,0.417609,0.239552,0.362624,0.928988,0.0920592,0.484621,0.188552,0.0816485,0.459713,0.612859,0.290556,0.194666,0.329437,0.36464,0.271103,0.16844,0.0772534,0.357864,0.208921,0.249646,0.339904,0.368308,0.367489,0.310259,0.335598,0.393836,0.303188,0.36469,0.347715,0.314883,0.387468,0.439842,0.430959,0.377747,0.2936,0.33846,0.478651,0.382007,0.33272,0.2113,0.174964,0.380429,0.296618,0.357069,0.346554,0.281019,0.331249,0.330026
1866.786,0.413416,0.318278,0.283438,0.203006,0.53634,0.476668,0.291765,0.41148,0.235889,0.355935,0.918932,0.0886787,0.47897,0.184428,0.0752818,0.454596,0.602285,0.285347,0.188714,0.325846,0.360826,0.266461,0.166119,0.0732053,0.35285,0.203402,0.246056,0.333791,0.363838,0.362179,0.306452,0.332035,0.388894,0.297926,0.36068,0.345236,0.310689,0.380404,0.435144,0.424741,0.372284,0.288897,0.334297,0.473128,0.37398,0.325244,0.207062,0.171271,0.376773,0.291843,0.351608,0.342748,0.276044,0.32506,0.324046
1878.358,0.406652,0.314061,0.278081,0.198432,0.528728,0.46799,0.287085,0.405121,0.231875,0.348903,0.908964,0.085276,0.473256,0.180182,0.0684564,0.449202,0.591355,0.279789,0.183028,0.322164,0.357032,0.2616,0.163695,0.0688652,0.34794,0.197792,0.242472,0.327362,0.359197,0.35692,0.302133,0.327774,0.383862,0.292445,0.356516,0.342898,0.306144,0.373165,0.430204,0.417459,0.366793,0.283868,0.330398,0.467259,0.365831,0.317502,0.202667,0.167714,0.373068,0.28681,0.345897,0.338847,0.270477,0.318926,0.317588
1889.929,0.399854,0.309681,0.272415,0.193578,0.520865,0.45932,0.282286,0.398713,0.22769,0.341661,0.898295,0.0813908,0.467347,0.175862,0.0612751,0.443438,0.580059,0.273966,0.177644,0.318505,0.352971,0.256507,0.161199,0.0642973,0.342994,0.192115,0.238769,0.320606,0.35444,0.35149,0.297932,0.323122,0.378572,0.286719,0.352129,0.340953,0.30134,0.365688,0.424937,0.409348,0.360805,0.278319,0.325929,0.460934,0.35751,0.309472,0.198094,0.164043,0.369353,0.281322,0.339982,0.334979,0.264609,0.312651,0.31039
1901.5,0.392866,0.305076,0.266884,0.18856,0.51272,0.45032,0.277374,0.391833,0.223562,0.33423,0.886367,0.0768368,0.461067,0.171353,0.053931,0.437116,0.568255,0.267832,0.172522,0.314397,0.348455,0.251258,0.158557,0.05948,0.337856,0.186476,0.234881,0.31357,0.349493,0.345689,0.294095,0.318479,0.373127,0.280778,0.347334,0.33869,0.296531,0.357967,0.419211,0.400407,0.35434,0.272354,0.320565,0.454092,0.348856,0.301143,0.193208,0.160065,0.365459,0.275402,0.33389,0.331087,0.258572,0.306057,0.302775
1913.071,0.385621,0.300187,0.261739,0.183365,0.50412,0.440985,0.272277,0.384449,0.219612,0.326778,0.873389,0.0719888,0.454338,0.166634,0.0465483,0.430377,0.555855,0.261198,0.167509,0.309731,0.34357,0.245851,0.155719,0.0543451,0.332543,0.180939,0.230823,0.306178,0.344005,0.339507,0.290385,0.31367,0.367708,0.274643,0.342252,0.335887,0.291728,0.349965,0.413112,0.390642,0.347849,0.266115,0.314845,0.44667,0.339788,0.292478,0.188006,0.155709,0.361091,0.269326,0.327508,0.327164,0.252228,0.299197,0.295356
1924.641,0.378417,0.29504,0.256633,0.177978,0.495229,0.431318,0.266866,0.377058,0.215656,0.319203,0.860148,0.0673028,0.447427,0.161728,0.039086,0.423341,0.542809,0.253928,0.162452,0.304829,0.338672,0.240144,0.152635,0.0488417,0.327241,0.175505,0.22667,0.298409,0.338166,0.333153,0.286273,0.308286,0.362604,0.268284,0.336985,0.332229,0.28671,0.341793,0.406827,0.380281,0.341442,0.25967,0.309453,0.43875,0.330377,0.283556,0.182573,0.151082,0.356407,0.263231,0.320817,0.323187,0.245298,0.292204,0.288205
1936.213,0.371388,0.289811,0.250857,0.172258,0.485723,0.421322,0.261011,0.3698,0.211378,0.311145,0.847001,0.0627012,0.440645,0.156705,0.0314037,0.415892,0.529192,0.24624,0.157346,0.299951,0.333856,0.234025,0.149314,0.0430196,0.322038,0.170113,0.222454,0.290302,0.332128,0.32663,0.2818,0.302147,0.357693,0.261775,0.331734,0.328267,0.281301,0.333542,0.400351,0.369505,0.334964,0.253071,0.304329,0.430626,0.320636,0.27428,0.177062,0.146266,0.351594,0.256844,0.313907,0.319052,0.237723,0.285174,0.280817
1947.783,0.364482,0.284653,0.244161,0.166095,0.4753,0.411132,0.254694,0.36241,0.206602,0.302514,0.833998,0.0577635,0.433984,0.151673,0.0236667,0.408171,0.514954,0.23843,0.152023,0.295116,0.3289,0.22753,0.145818,0.0370405,0.316786,0.164646,0.218222,0.282046,0.325887,0.3199,0.277194,0.295698,0.352783,0.255264,0.326552,0.324567,0.275737,0.325275,0.393666,0.358373,0.328562,0.2465,0.298883,0.422351,0.31053,0.264551,0.171582,0.141249,0.346974,0.249939,0.306916,0.314624,0.22989,0.278045,0.27251
1959.354,0.357491,0.279738,0.237063,0.159605,0.464351,0.400803,0.248042,0.354939,0.201505,0.293537,0.821339,0.0523611,0.427359,0.146737,0.0161419,0.400506,0.500265,0.230603,0.146376,0.290136,0.323797,0.220677,0.142227,0.031066,0.311428,0.159,0.214047,0.273848,0.319534,0.31323,0.273095,0.289589,0.347873,0.248884,0.321499,0.321497,0.270469,0.31715,0.387015,0.347147,0.322433,0.240002,0.29285,0.413833,0.300265,0.254464,0.166161,0.136101,0.342736,0.242593,0.299897,0.309764,0.221991,0.270603,0.263245
1970.925,0.350518,0.275055,0.230202,0.153009,0.453104,0.390607,0.241186,0.347927,0.196564,0.28423,0.809212,0.0471322,0.420942,0.142018,0.00900465,0.392964,0.485683,0.222827,0.140375,0.285151,0.318894,0.21377,0.138677,0.0252346,0.306196,0.152972,0.210038,0.265797,0.313096,0.306933,0.269522,0.283965,0.343167,0.242702,0.316547,0.318482,0.265679,0.309355,0.380861,0.336165,0.316501,0.23362,0.286842,0.405362,0.290118,0.244256,0.160847,0.130906,0.33874,0.235147,0.293091,0.304442,0.213979,0.262668,0.25381
1982.496,0.343778,0.270501,0.223725,0.14652,0.441631,0.380829,0.234244,0.341582,0.192186,0.274644,0.79779,0.0427562,0.415064,0.137602,0.00228476,0.385619,0.471363,0.215193,0.133937,0.280555,0.31454,0.206847,0.13532,0.0196013,0.301307,0.146696,0.206288,0.258051,0.306677,0.301127,0.26611,0.278451,0.338857,0.236703,0.31192,0.314736,0.261251,0.30202,0.375279,0.325664,0.310649,0.227276,0.281648,0.397413,0.280399,0.234097,0.155703,0.125751,0.334732,0.227864,0.286686,0.298824,0.205818,0.254327,0.244796
1994.068,0.33754,0.266231,0.217321,0.140285,0.430441,0.371706,0.227373,0.335546,0.188595,0.265004,0.78723,0.0390867,0.409808,0.133499,-0.00403025,0.378738,0.457884,0.208039,0.127207,0.276547,0.310592,0.200075,0.132273,0.0142942,0.296699,0.140369,0.202877,0.25086,0.300503,0.29579,0.262252,0.27286,0.334922,0.231029,0.307738,0.310739,0.257058,0.295419,0.37021,0.315862,0.305068,0.221213,0.277358,0.390106,0.271185,0.2243,0.150836,0.120668,0.330853,0.220877,0.280905,0.293136,0.19781,0.245986,0.236179
2005.638,0.331672,0.262467,0.210895,0.134433,0.419953,0.363466,0.220763,0.329722,0.185739,0.255774,0.777592,0.0354606,0.405138,0.129766,-0.0100531,0.372409,0.445546,0.201615,0.12061,0.273114,0.306877,0.193649,0.129597,0.00944226,0.292283,0.134178,0.199873,0.244343,0.294817,0.291037,0.258347,0.267587,0.331237,0.225774,0.304009,0.307533,0.253285,0.289521,0.365719,0.30711,0.3001,0.215594,0.27335,0.383325,0.262754,0.215024,0.146365,0.115794,0.32751,0.21422,0.27579,0.287631,0.190483,0.238071,0.227557
2017.209,0.326233,0.259184,0.205005,0.128997,0.410297,0.356243,0.214642,0.324626,0.183181,0.247274,0.768859,0.031622,0.400932,0.126451,-0.0155831,0.366461,0.434342,0.196011,0.11438,0.269907,0.303506,0.187553,0.12731,0.00518741,0.288204,0.128396,0.197327,0.238515,0.289707,0.287075,0.254956,0.26315,0.327689,0.220874,0.300584,0.305616,0.250195,0.284386,0.362076,0.29941,0.295651,0.210417,0.2692,0.377189,0.255347,0.20653,0.142391,0.11122,0.324702,0.208031,0.271329,0.282546,0.184027,0.230761,0.218904
2028.78,0.32118,0.256265,0.200404,0.124162,0.401915,0.350015,0.209191,0.320277,0.180622,0.239665,0.761013,0.0280729,0.397239,0.123558,-0.0204771,0.360934,0.424485,0.191123,0.108597,0.267019,0.300702,0.182004,0.125386,0.00156457,0.284583,0.123279,0.195227,0.233308,0.285091,0.283867,0.252331,0.259662,0.324423,0.21628,0.297363,0.304616,0.247889,0.280025,0.359238,0.292669,0.29141,0.205554,0.265289,0.371943,0.248995,0.198942,0.138883,0.107038,0.322284,0.202553,0.267552,0.278052,0.178304,0.224093,0.21081
2040.351,0.316722,0.253509,0.197281,0.120058,0.394913,0.344808,0.204486,0.316211,0.177972,0.232984,0.753909,0.0254459,0.394142,0.12113,-0.0247876,0.356021,0.41603,0.186765,0.103411,0.264791,0.298344,0.177204,0.123763,-0.001495,0.281411,0.118966,0.193507,0.228764,0.280903,0.281156,0.250078,0.256685,0.32156,0.212009,0.294572,0.303734,0.24612,0.276382,0.356969,0.287064,0.287371,0.201208,0.262389,0.367521,0.243595,0.192353,0.135774,0.103338,0.319842,0.197882,0.264424,0.27431,0.17321,0.217979,0.204008
2051.922,0.312791,0.250891,0.19512,0.116718,0.389053,0.340541,0.200511,0.31228,0.175453,0.227294,0.747494,0.0235332,0.3915,0.119144,-0.0287688,0.351531,0.408687,0.182975,0.0990138,0.263297,0.296233,0.173184,0.122378,-0.00410248,0.278544,0.115541,0.192092,0.224877,0.277144,0.278909,0.247683,0.253826,0.319152,0.208056,0.292324,0.302512,0.244606,0.273388,0.355283,0.282541,0.283869,0.197248,0.260489,0.363599,0.239082,0.18674,0.13295,0.100206,0.317468,0.193895,0.261835,0.271449,0.168847,0.212483,0.19851
2063.493,0.309207,0.248588,0.193257,0.113992,0.384503,0.337115,0.197197,0.308867,0.173418,0.22262,0.741751,0.0214385,0.389063,0.117554,-0.0325183,0.347148,0.402559,0.179864,0.0954238,0.262243,0.294354,0.169763,0.121179,-0.00634889,0.276033,0.112973,0.190907,0.221499,0.273825,0.277173,0.244962,0.251093,0.317093,0.204411,0.290412,0.301355,0.243304,0.270963,0.354211,0.278775,0.280947,0.193465,0.25888,0.360106,0.235396,0.181981,0.130378,0.0975659,0.315526,0.190474,0.259701,0.269551,0.165266,0.207745,0.19377
2075.064,0.306094,0.246742,0.191649,0.111697,0.381118,0.334379,0.194431,0.306036,0.172048,0.218851,0.736697,0.0187715,0.386894,0.11625,-0.035926,0.343006,0.397286,0.177317,0.0925538,0.261198,0.292869,0.166927,0.120133,-0.00824768,0.274036,0.111089,0.189959,0.218403,0.270915,0.275844,0.242559,0.248919,0.315351,0.201042,0.288728,0.301247,0.242395,0.269034,0.353495,0.275735,0.278352,0.189851,0.256957,0.357275,0.232412,0.178035,0.128051,0.095327,0.314226,0.187564,0.257933,0.268583,0.162372,0.203741,0.18906
2086.635,0.303571,0.245041,0.190755,0.109686,0.378448,0.332281,0.192128,0.303341,0.1712,0.215757,0.732413,0.0160289,0.385108,0.115197,-0.0388601,0.339242,0.392696,0.175035,0.0904479,0.260172,0.291734,0.16446,0.11923,-0.00981749,0.272559,0.109675,0.189206,0.215576,0.268245,0.274681,0.240898,0.247497,0.313872,0.197946,0.287278,0.302529,0.241944,0.267517,0.352897,0.273531,0.276013,0.186462,0.254925,0.354947,0.229927,0.174735,0.125986,0.0933726,0.313236,0.18511,0.256439,0.268346,0.159955,0.200407,0.184499
2098.206,0.301491,0.243346,0.190801,0.107948,0.376271,0.330672,0.190169,0.300666,0.170551,0.213136,0.728902,0.0139867,0.383574,0.114316,-0.0412888,0.335609,0.388648,0.172841,0.0887589,0.259472,0.290792,0.162136,0.118464,-0.0111173,0.271466,0.108572,0.188633,0.213055,0.265721,0.273633,0.239851,0.246539,0.312874,0.195184,0.286271,0.304085,0.241772,0.266354,0.352476,0.27188,0.27422,0.183301,0.253483,0.352723,0.227822,0.171848,0.124167,0.0916415,0.312245,0.182932,0.255123,0.26857,0.157795,0.197551,0.18052
2109.777,0.299777,0.241785,0.191325,0.106442,0.374544,0.329509,0.188465,0.298429,0.169782,0.210847,0.726183,0.0125797,0.382118,0.113601,-0.0434012,0.331948,0.385013,0.170739,0.0874335,0.259248,0.289992,0.160156,0.117854,-0.0122491,0.270661,0.10767,0.188218,0.210749,0.263272,0.272829,0.23895,0.245612,0.312346,0.192758,0.285718,0.3049,0.241619,0.265495,0.352438,0.27044,0.273041,0.18031,0.252823,0.350589,0.226053,0.169258,0.122549,0.0900415,0.311398,0.180875,0.253936,0.269042,0.155813,0.194989,0.177353
2121.348,0.298292,0.240673,0.191566,0.105122,0.372889,0.32877,0.186933,0.29675,0.168746,0.208835,0.724318,0.0109535,0.380687,0.113034,-0.045293,0.328543,0.381569,0.16889,0.0863057,0.259241,0.289407,0.15845,0.117384,-0.0132639,0.270245,0.106879,0.187918,0.208574,0.260819,0.272271,0.237755,0.244615,0.312221,0.190661,0.285417,0.305012,0.241448,0.264884,0.352754,0.269327,0.272227,0.177434,0.252392,0.348761,0.224625,0.166885,0.121055,0.0885956,0.311032,0.178915,0.252852,0.26963,0.153996,0.192553,0.174584
2132.919,0.297025,0.24,0.191261,0.103866,0.371267,0.32843,0.185535,0.295243,0.167648,0.20697,0.723279,0.0086031,0.379433,0.112621,-0.0468637,0.325538,0.37829,0.167341,0.0853066,0.259206,0.289144,0.156849,0.117039,-0.0141407,0.270237,0.106144,0.187708,0.20655,0.258425,0.271791,0.236666,0.243886,0.312377,0.188945,0.285372,0.305139,0.241449,0.264541,0.353158,0.268609,0.271479,0.174609,0.251559,0.347166,0.223406,0.164635,0.119659,0.0872686,0.311374,0.177171,0.251887,0.270323,0.152359,0.190135,0.171636
2144.49,0.295999,0.239544,0.19089,0.102602,0.36977,0.328404,0.184266,0.293813,0.166806,0.20511,0.723079,0.00613953,0.378483,0.112366,-0.047906,0.322644,0.375296,0.165949,0.0844572,0.259249,0.289133,0.15537,0.116807,-0.01483,0.270522,0.105432,0.18762,0.204796,0.256114,0.271412,0.236126,0.243792,0.312652,0.187646,0.285591,0.306129,0.241793,0.264437,0.353605,0.268003,0.270855,0.172096,0.250456,0.345543,0.222371,0.162498,0.118405,0.0860566,0.312093,0.175665,0.251113,0.271135,0.150875,0.187705,0.168362
2156.061,0.295101,0.239085,0.191021,0.101356,0.368308,0.328725,0.183106,0.292804,0.166528,0.203314,0.723727,0.00447328,0.377651,0.112281,-0.0484046,0.319898,0.37275,0.164619,0.0836697,0.259635,0.289277,0.153942,0.116654,-0.0152796,0.270958,0.104872,0.187662,0.203332,0.253848,0.271312,0.236302,0.244307,0.313014,0.186719,0.28624,0.308026,0.242418,0.26455,0.354344,0.267426,0.270577,0.169631,0.249793,0.344009,0.22166,0.160471,0.117362,0.0849872,0.312786,0.174232,0.250518,0.272006,0.149507,0.185271,0.165171
2167.632,0.294302,0.238828,0.191615,0.100235,0.366946,0.329415,0.182045,0.292396,0.166798,0.201648,0.725183,0.00360278,0.376877,0.112321,-0.0484825,0.317578,0.370599,0.163378,0.0827313,0.260624,0.289654,0.152481,0.11654,-0.0155063,0.271598,0.104442,0.187841,0.20209,0.251699,0.271469,0.236606,0.245028,0.313718,0.186154,0.287279,0.309634,0.243117,0.264914,0.355503,0.267037,0.270609,0.167286,0.249943,0.342798,0.221279,0.15858,0.116572,0.084027,0.313372,0.172804,0.250073,0.272844,0.148176,0.182932,0.162512
2179.203,0.293745,0.239058,0.192058,0.0992852,0.365642,0.33038,0.18108,0.292251,0.16728,0.200122,0.72746,0.00266197,0.376396,0.112451,-0.0482346,0.31563,0.368778,0.162437,0.0816687,0.261886,0.290474,0.151023,0.116471,-0.0155574,0.272592,0.104186,0.18814,0.201039,0.24965,0.271726,0.236733,0.24569,0.314825,0.185974,0.288628,0.310187,0.243782,0.265578,0.35684,0.266824,0.270749,0.165045,0.250513,0.341856,0.221169,0.156868,0.116018,0.0831287,0.314181,0.171379,0.249891,0.273604,0.14688,0.18081,0.160362
2190.774,0.293462,0.239811,0.191909,0.0984867,0.364324,0.331569,0.180234,0.292118,0.167639,0.198656,0.730412,0.0010126,0.376267,0.112634,-0.0476373,0.313787,0.367249,0.161851,0.0806014,0.263056,0.291574,0.149695,0.116451,-0.0154671,0.273876,0.104027,0.188517,0.200254,0.247717,0.272066,0.236595,0.246399,0.316154,0.186173,0.290068,0.310225,0.244546,0.266415,0.358099,0.266546,0.27104,0.162773,0.250831,0.340922,0.221216,0.155309,0.115634,0.0823265,0.315731,0.17016,0.249914,0.274387,0.145751,0.178884,0.158286
2202.345,0.29337,0.240743,0.191453,0.0977634,0.363103,0.332889,0.179555,0.292323,0.167649,0.197269,0.73404,-0.000892144,0.376257,0.112848,-0.0465955,0.312138,0.366065,0.16146,0.0794708,0.264156,0.292687,0.148475,0.116496,-0.0152174,0.275222,0.103895,0.18896,0.199767,0.245963,0.272647,0.236781,0.247487,0.317588,0.186677,0.291678,0.310953,0.245552,0.267434,0.359403,0.266186,0.271679,0.16062,0.250779,0.340121,0.221514,0.153895,0.115385,0.0815851,0.317726,0.16934,0.250069,0.275353,0.144894,0.177034,0.15587
2213.916,0.293401,0.241547,0.191357,0.0971253,0.362059,0.334167,0.179055,0.292975,0.16759,0.196083,0.738247,-0.00208314,0.376302,0.11312,-0.0452698,0.311008,0.36513,0.161125,0.0783532,0.265589,0.293924,0.147529,0.116631,-0.0147734,0.276704,0.103681,0.189595,0.199543,0.244504,0.273561,0.237506,0.249188,0.31917,0.187479,0.29364,0.312787,0.246847,0.268784,0.361053,0.265964,0.272706,0.158488,0.251033,0.339696,0.222197,0.152675,0.11528,0.0809619,0.319641,0.168702,0.250488,0.276434,0.144287,0.175058,0.153291
2225.487,0.293657,0.242612,0.19181,0.0966444,0.361201,0.335303,0.178701,0.293822,0.167769,0.19503,0.742883,-0.00239493,0.376596,0.113539,-0.0437439,0.310248,0.364232,0.160867,0.0774479,0.267751,0.295501,0.14669,0.11687,-0.0141641,0.278506,0.103419,0.190434,0.199722,0.243425,0.274719,0.238734,0.251402,0.32106,0.188648,0.29608,0.314992,0.248367,0.27054,0.362844,0.265944,0.274105,0.156325,0.25207,0.339586,0.22327,0.151717,0.115344,0.0805394,0.321346,0.168071,0.251331,0.277151,0.143793,0.172995,0.151011
2237.058,0.294035,0.243979,0.192365,0.0961368,0.360286,0.336509,0.178346,0.294593,0.168104,0.193846,0.747704,-0.00277538,0.37706,0.113967,-0.0419243,0.309493,0.3636,0.160688,0.0765011,0.270087,0.297312,0.145718,0.117195,-0.0134407,0.280343,0.103088,0.191134,0.199815,0.242238,0.275662,0.239652,0.253301,0.323096,0.189987,0.298532,0.316345,0.24965,0.272155,0.364431,0.265618,0.27528,0.154311,0.253503,0.339394,0.224291,0.150713,0.115554,0.0800175,0.32329,0.167266,0.252156,0.277513,0.143148,0.171063,0.149344
2248.629,0.294663,0.245833,0.192474,0.0960262,0.359432,0.337552,0.178048,0.295629,0.169002,0.192981,0.753059,-0.00395822,0.377693,0.114603,-0.0399139,0.308964,0.363115,0.16087,0.0758672,0.272134,0.299163,0.144816,0.117624,-0.0126713,0.282355,0.102799,0.192143,0.200249,0.241146,0.276841,0.24019,0.25517,0.325521,0.191553,0.300906,0.317126,0.251098,0.273884,0.365816,0.265401,0.276888,0.152366,0.254667,0.339296,0.225694,0.149862,0.115926,0.0798088,0.325795,0.166734,0.25331,0.277504,0.142793,0.169382,0.147848
2260.2,0.295396,0.247452,0.192112,0.0960577,0.35864,0.338554,0.177816,0.297034,0.170065,0.192343,0.758597,-0.00557586,0.378201,0.115277,-0.0376495,0.308691,0.362816,0.161196,0.0751984,0.273853,0.300889,0.143999,0.118118,-0.0118733,0.284163,0.102559,0.193094,0.200764,0.239964,0.278109,0.240824,0.256971,0.327918,0.193196,0.303242,0.317771,0.25256,0.275689,0.3673,0.265068,0.278712,0.150355,0.255364,0.339355,0.227207,0.149138,0.116356,0.0795797,0.328601,0.166546,0.254457,0.277951,0.142665,0.168082,0.146227
2271.771,0.295848,0.248318,0.191846,0.0957769,0.357474,0.339894,0.177601,0.298486,0.170574,0.191461,0.763714,-0.00679998,0.378557,0.115756,-0.0349395,0.308282,0.362794,0.161417,0.0741214,0.275752,0.302532,0.142839,0.118601,-0.0110371,0.285521,0.102439,0.193435,0.200914,0.238156,0.278697,0.241818,0.258485,0.329795,0.19466,0.305363,0.318932,0.253622,0.276965,0.36902,0.264056,0.279904,0.14887,0.256016,0.339268,0.228377,0.148328,0.116792,0.0787105,0.331003,0.166236,0.255159,0.279818,0.142347,0.167088,0.144771
2283.342,0.296106,0.249066,0.191929,0.0952403,0.35606,0.341408,0.177357,0.299794,0.170396,0.190456,0.768384,-0.00783052,0.378866,0.116083,-0.0320747,0.307728,0.36295,0.161515,0.0728499,0.278013,0.304166,0.141467,0.119057,-0.0101671,0.286622,0.102321,0.193318,0.200828,0.235999,0.278773,0.24276,0.259652,0.331425,0.195896,0.307147,0.320173,0.254278,0.27777,0.3706,0.262615,0.280589,0.148024,0.257015,0.338928,0.229245,0.147527,0.117247,0.0774444,0.332978,0.165698,0.255558,0.282748,0.141801,0.16611,0.14379
2294.913,0.296238,0.249661,0.192085,0.0946196,0.354541,0.342882,0.177119,0.301023,0.169873,0.189411,0.772646,-0.0089103,0.3791,0.116314,-0.029093,0.307134,0.363182,0.161564,0.0715023,0.280329,0.305712,0.140001,0.119491,-0.00929966,0.287481,0.102237,0.19291,0.200597,0.233649,0.278539,0.243589,0.260528,0.332898,0.196932,0.308691,0.321233,0.254654,0.278254,0.372057,0.260942,0.280983,0.14751,0.258063,0.338448,0.229955,0.146764,0.117711,0.0759558,0.334736,0.165095,0.255764,0.286325,0.141167,0.16517,0.143083
2306.484,0.296237,0.250049,0.19228,0.0939584,0.352981,0.344222,0.176897,0.30212,0.169083,0.18836,0.776445,-0.0100313,0.379265,0.116453,-0.0260477,0.306503,0.363435,0.161558,0.0701199,0.28265,0.307135,0.138484,0.119892,-0.008454,0.288114,0.102181,0.192268,0.200244,0.231179,0.27803,0.244304,0.261161,0.334211,0.197753,0.310018,0.322135,0.254788,0.278456,0.373371,0.259134,0.281129,0.14724,0.259103,0.337839,0.230525,0.14605,0.118167,0.0743242,0.33625,0.164455,0.255801,0.29036,0.140474,0.164276,0.142572
2318.055,0.29611,0.250268,0.192473,0.0933126,0.35147,0.345292,0.176694,0.303029,0.168134,0.187346,0.779727,-0.0112508,0.379368,0.116515,-0.0230239,0.305857,0.363629,0.161499,0.0687796,0.284894,0.308401,0.136996,0.120253,-0.00764926,0.288565,0.102133,0.19148,0.199813,0.228726,0.277335,0.244852,0.261604,0.335407,0.198342,0.311149,0.32285,0.254736,0.278444,0.374488,0.257337,0.281105,0.147095,0.26008,0.337124,0.231003,0.145413,0.118606,0.0726737,0.337534,0.163817,0.255727,0.294582,0.139768,0.163421,0.142172
2329.626,0.295877,0.250381,0.192609,0.0927558,0.350123,0.345925,0.176519,0.303693,0.167179,0.186424,0.782457,-0.0126403,0.379428,0.116525,-0.0201184,0.305235,0.363673,0.161397,0.0675791,0.286962,0.309477,0.135637,0.12057,-0.0069042,0.288898,0.102066,0.190667,0.19937,0.226468,0.276578,0.245175,0.261939,0.33655,0.198693,0.312122,0.323353,0.254577,0.278313,0.375349,0.255736,0.281023,0.146921,0.260928,0.336346,0.231463,0.144889,0.119024,0.0711653,0.338618,0.163241,0.255629,0.298636,0.139113,0.162607,0.141774
2341.197,0.295569,0.250471,0.192619,0.0923799,0.349078,0.345929,0.176382,0.304056,0.166408,0.185667,0.784619,-0.0142858,0.37947,0.116515,-0.0174398,0.304686,0.363464,0.16127,0.0666368,0.288738,0.31033,0.134529,0.120839,-0.00623713,0.289199,0.101945,0.189979,0.199003,0.224621,0.275916,0.24521,0.262273,0.337727,0.198812,0.312992,0.323625,0.254418,0.27819,0.375886,0.254551,0.281029,0.146526,0.261567,0.335562,0.232004,0.144522,0.119419,0.0699967,0.339555,0.162799,0.255617,0.302087,0.138592,0.161848,0.141242
2352.768,0.295227,0.250641,0.192421,0.0922942,0.348498,0.345081,0.176297,0.304059,0.166058,0.185158,0.786214,-0.0162874,0.379528,0.116528,-0.0151091,0.304276,0.362885,0.161144,0.0660918,0.290086,0.310928,0.133818,0.121062,-0.00566592,0.289575,0.101731,0.189598,0.198819,0.22344,0.275542,0.24489,0.262739,0.339041,0.198715,0.313826,0.323653,0.254387,0.278232,0.376025,0.254043,0.281302,0.145687,0.261907,0.334846,0.23275,0.144368,0.119793,0.0694026,0.340417,0.162583,0.255828,0.304417,0.138307,0.161161,0.140414
2364.339,0.294905,0.251019,0.191917,0.092626,0.348571,0.343134,0.17628,0.303645,0.166404,0.184998,0.787263,-0.0187597,0.379644,0.116618,-0.0132588,0.304087,0.361809,0.161054,0.066104,0.290852,0.311238,0.133672,0.121241,-0.00520798,0.290153,0.101377,0.189738,0.198948,0.22322,0.27568,0.244143,0.263499,0.340622,0.198432,0.314712,0.323427,0.254638,0.278625,0.375687,0.254506,0.282055,0.144141,0.261843,0.33429,0.233846,0.144488,0.120153,0.0696542,0.341294,0.162699,0.256426,0.305027,0.138378,0.160576,0.139106
2375.91,0.294669,0.251751,0.190995,0.0935204,0.349507,0.33981,0.176351,0.302756,0.167764,0.1853,0.787803,-0.0218314,0.379869,0.116844,-0.0120336,0.304212,0.360097,0.161042,0.0668538,0.290867,0.311229,0.134278,0.121383,-0.00488029,0.291084,0.10083,0.190644,0.19954,0.224297,0.276593,0.242893,0.264741,0.342616,0.198003,0.315752,0.322943,0.255352,0.279587,0.374785,0.256275,0.283536,0.141594,0.261261,0.334,0.235465,0.144955,0.120509,0.0710599,0.342298,0.163274,0.257599,0.303235,0.138944,0.160129,0.137105
2387.481,0.294594,0.253008,0.189531,0.0951405,0.351543,0.334805,0.176532,0.301334,0.1705,0.186192,0.78789,-0.0256457,0.380261,0.117279,-0.01159,0.304763,0.357598,0.161158,0.0685426,0.289939,0.310869,0.135849,0.121494,-0.00469939,0.292537,0.100029,0.192591,0.200765,0.227045,0.278574,0.241059,0.266678,0.345192,0.19748,0.317063,0.322201,0.256731,0.281364,0.373228,0.259721,0.286023,0.137714,0.260032,0.334098,0.237804,0.14585,0.120872,0.0739644,0.343559,0.164448,0.259563,0.298279,0.140162,0.159865,0.134175
2399.052,0.29477,0.25498,0.187384,0.097667,0.354939,0.327787,0.17685,0.299321,0.175012,0.187817,0.787598,-0.03036,0.380887,0.118003,-0.0120966,0.305863,0.354147,0.16146,0.0713923,0.287862,0.310127,0.138619,0.121587,-0.00468135,0.294706,0.0989093,0.195887,0.202817,0.231877,0.281952,0.238555,0.269551,0.34854,0.196926,0.318781,0.321207,0.259004,0.284233,0.370916,0.265253,0.289832,0.132133,0.258015,0.334725,0.241083,0.147264,0.12126,0.0787497,0.345227,0.16638,0.262558,0.289313,0.142207,0.159838,0.130054