File: Glass FTIR Baseline Share With Sarah 2023/Dans_Data_raw_cleaned.csv
Wavenumber,WD23MI02,WD33MI03,SH55MI02,SH54MI11,SH63MI02,WD71AMI01,SH63MI10,SH01MI11,SH01MI05,SH63MI39,WD23MI03A,FI38MI01C,SH01MI12B,CV09EMI05,FI38MI01B,SH01MI12A,OK14MI07,OK14MI12,AK96MI13,OK14MI01,WD35MI04A,SH63MI43,OK14MI06C,Terry3MI04A,FI45MI02,AK96MI08,WD70MI03,Terry3MI03,JFL19BMI11,WD12MI04A,FI45MI05,WD70MI01A,WD35MI02,WD07MI01A,FI45MI06,OK14MI08,WD70MI01B,WD12MI06,WD35MI01,OK14MI09,WD07MI01B,SH63MI53,FI38MI05A,SH58MI01,SH63MI34,SH01MI21,OK17MI05A,SH63MI22,FI45MI04A,SH63MI27,JFL30AMI12,VS73MI02,SH63MI25,SH63MI31,SH63MI24
451.2686,0.820063,1.91683,0.561094,0.354758,1.38062,0.958119,0.501156,1.43457,0.6397086,0.558277,2.26386,0.330773,1.17948,0.5859743,0.331403,0.817392,2.981056,0.643463,0.6487644,3.47991,0.816372,0.593019,0.374355,0.2711214,1.05229,0.425731,0.673407,0.641772,0.5702524,0.799922,0.441858,0.795417,1.74099,0.59531,1.05507,3.25979,0.699576,0.813621,1.27972,0.976636,0.863601,2.41748,0.833221,0.9123945,0.9456461,0.474767,0.4801752,0.3688718,2.45084,0.658986,0.828558,0.7018526,0.53032,0.511019,0.929539
534.1941,0.847061,0.161152,0.362437,0.0928883,1.27428,0.7511762,0.324393,0.727209,0.283092,0.265217,1.61975,0.06053737,0.755746,0.261562,0.0622159,0.616274,3.614749,0.398506,1.53168,-0.156109,0.631075,0.01012219,0.0924072,-0.02357257,0.707821,0.0590616,0.4325645,0.382728,0.43671,0.57732,0.515636,0.571894,2.28273,-0.215674,0.516543,0.1065,0.409498,0.561243,1.12224,0.54575,0.505635,1.49665,0.5313479,0.689097,0.726155,0.2148562,0.246769,0.1751936,0.6125086,0.3622917,0.582915,0.521425,0.2661208,0.313135,0.4979963
617.1195,1.25006,1.25339,1.03839,0.87191,1.27146,1.210713,0.9060849,1.712378,1.03713,1.15582,2.25514,0.941984,1.988635,1.13416,0.921054,1.31833,2.399321,1.30592,1.13188,1.41437,1.233296,0.990527,0.980752,0.939426,1.315232,1.08339,1.143856,1.13796,0.750394,1.30756,2.44739,1.464275,1.57257,1.24589,2.235514,1.13542,1.63006,1.32131,1.75552,1.07764,1.35876,1.86646,1.2075,1.31775,1.56577,1.00828,0.886375,0.666331,1.46144,0.975146,1.06658,1.261365,1.06223,0.927655,1.1861
700.045,2.88312,2.0357,1.64609,1.496772,1.77111,1.58186,1.48295,3.235084,1.35852,2.08082,2.863507,1.563531,1.86104,1.72612,1.5192,1.77917,4.348072,1.85668,3.00701,1.53244,1.8767,2.05177,1.53379,1.49265,1.98474,1.828418,1.754003,1.70846,1.324832,1.85517,2.72346,2.016,2.70082,1.70049,2.743813,1.62911,2.14123,2.033931,2.55669,1.44655,1.95127,2.91049,1.973085,1.93632,2.026844,1.584,1.50267,1.30593,2.5795,1.60743,2.77751,1.87553,1.63642,1.429421,1.72533
782.9704,2.63503,3.04108,1.893073,1.7435,2.65699,1.76261,1.734472,2.48835,1.53352,2.48108,2.6569,1.834226,2.021034,2.048951,1.8507,2.01853,3.127167,2.103672,3.306597,1.57186,2.26198,1.880276,1.764389,1.71466,2.1911,2.30195,2.040545,2.04712,1.60884,2.08307,4.38537,2.32087,3.2088,1.877582,2.1475,1.55573,2.34505,2.35682,2.30893,1.633987,2.2708,2.377225,2.159801,2.21572,2.329455,1.80742,1.78464,1.60809,4.3397,1.922759,2.29813,2.12926,1.89106,1.75257,2.26465
865.8958,3.20666,3.16073,2.034669,1.88817,2.10824,1.86127,1.88934,2.6587,1.68863,2.20585,2.99064,2.02625,2.098683,2.21564,1.980003,2.08315,3.960776,2.20386,2.422477,1.74234,2.473164,2.854483,1.906995,1.84765,2.47375,2.810314,2.19795,2.17024,1.82859,2.228685,3.03989,2.33938,3.81707,1.99772,2.74493,1.83142,2.46937,2.32646,3.11311,1.713896,2.41403,2.284432,2.30951,2.364988,2.451965,1.94378,1.94125,1.74717,3.64085,2.078719,2.504909,2.3225,2.034358,2.09722,2.23971
948.8213,3.08792,2.92069,2.13914,2.005,3.22451,1.90319,1.9957,2.92754,1.77828,2.50215,3.116975,2.09538,2.21447,2.34217,2.18913,2.13312,3.889003,2.451964,3.60778,1.83648,2.52179,2.569374,2.00979,1.93123,2.571809,2.39291,2.34904,2.32591,1.96599,2.30395,3.932156,2.498778,4.045891,2.04586,3.004636,2.178961,2.53545,2.53321,4.578728,1.81388,2.49475,2.75578,2.38545,2.506695,2.70994,2.02888,2.052807,1.929609,3.2191,2.21894,2.86344,2.45809,2.14756,2.22492,2.58821
1031.747,3.53486,3.462226,2.22011,2.082388,3.24825,1.97779,2.06498,4.27327,1.83289,2.39994,3.00774,2.34842,2.273262,2.78163,2.99149,2.225345,4.51251,3.84917,3.686219,1.893128,3.306488,2.658073,2.311197,2.118591,3.822518,4.64423,2.788892,2.4451,2.05236,2.36595,3.375254,2.62425,3.879439,2.11988,4.421123,1.954758,3.14918,2.72064,2.92521,1.89894,3.063073,2.95858,2.88596,2.64427,3.591863,2.08549,2.3392,2.094198,4.38809,2.38497,3.351443,2.64334,2.221206,2.35959,2.88389
1114.672,3.363139,3.00129,2.33388,2.55459,2.94317,2.02687,2.15538,4.098762,1.852193,3.35556,2.961804,2.5449,2.29986,2.76125,4.101647,2.31955,3.383579,3.518133,3.21529,2.03076,3.293892,3.56591,2.83932,3.32866,3.556473,4.73113,3.282889,3.4779,2.11025,2.42552,5.190565,2.871984,2.63821,2.18723,2.95676,2.078653,5.71932,3.44989,4.57606,1.994345,3.37297,3.50121,3.231456,2.93642,3.73486,2.30212,3.228814,2.52109,4.25235,2.99317,2.840749,3.50402,2.398138,2.30306,2.78394
1197.598,2.54552,2.58167,2.364081,2.887628,3.195904,2.08492,2.162171,3.68223,1.892265,3.97505,2.93527,2.5966,2.4123,2.72527,3.55328,2.3352,3.44515,4.183014,2.18747,2.01964,2.868204,3.46611,3.049448,4.77998,2.82701,4.36929,3.28225,3.48729,2.11102,2.48256,2.67808,2.84502,2.42592,2.274228,3.78855,2.108331,5.015202,3.84076,3.35989,2.046465,2.970652,3.63782,3.56496,2.93623,4.00531,2.40898,4.06706,2.59759,3.31456,2.737715,2.76838,2.91596,2.41149,2.048874,2.612201
1280.523,1.106632,0.782958,0.854139,0.641426,1.559364,1.341222,0.7885663,0.886329,0.57479,0.971604,2.1018,0.487381,1.15469,0.595264,0.497593,1.039035,1.644664,0.793392,0.6971186,0.863884,0.798097,0.7994925,0.387703,0.480764,0.853571,0.62728,0.6113341,0.898146,0.8896118,0.9134973,0.775288,0.74208,0.870038,0.802346,0.850097,0.92496,0.7392697,1.037809,0.9202189,1.065225,0.916337,0.6151095,0.7595773,1.10925,1.072997,0.961324,0.540816,0.5599085,0.856237,0.739878,0.9379074,0.8893099,0.8323381,1.00637,0.9074682
1363.448,0.671994,0.455727,0.4376456,0.3221685,0.872617,0.7876089,0.4237208,0.579552,0.337824,0.4989544,1.33418,0.184607,0.7284621,0.341957,0.221944,0.657019,0.958574,0.4548217,0.3777918,0.514404,0.488413,0.4498707,0.2257553,0.188199,0.521683,0.339772,0.375312,0.526248,0.521864,0.552575,0.4704416,0.448978,0.574857,0.4835995,0.51338,0.496566,0.440589,0.614388,0.594048,0.6237166,0.538071,0.430169,0.4514432,0.672496,0.606485,0.530154,0.32343,0.281613,0.504068,0.4269941,0.542013,0.477458,0.453872,0.553959,0.517058
1446.374,0.54629,0.391575,0.365634,0.259804,0.670332,0.66895,0.3427151,0.51607,0.29653,0.425622,1.14662,0.1213696,0.623449,0.293177,0.1726507,0.565962,0.7963598,0.372932,0.3035707,0.419428,0.421794,0.3581,0.193676,0.135589,0.450568,0.2650835,0.335191,0.4497348,0.4456066,0.491541,0.3967878,0.390539,0.5085758,0.417823,0.4535309,0.38811,0.385428,0.535542,0.515979,0.5320122,0.464487,0.396201,0.3906902,0.5726488,0.514988,0.450071,0.28278,0.232474,0.445706,0.339101,0.466364,0.384587,0.36976,0.4441226,0.416776
1529.299,0.502135,0.385137,0.339567,0.242826,0.596322,0.661819,0.314553,0.513815,0.286207,0.399873,1.125064,0.1210252,0.5957811,0.2797377,0.171749,0.5366858,0.7418278,0.347711,0.2599104,0.3864691,0.4180753,0.32516,0.1844196,0.1214,0.447492,0.2443389,0.328347,0.42183,0.42927,0.4767775,0.3824526,0.3819601,0.4936429,0.401654,0.452747,0.3562,0.3864,0.516096,0.5035331,0.510409,0.449807,0.379404,0.381352,0.540147,0.487936,0.419589,0.271287,0.210391,0.4496125,0.317667,0.44887,0.374173,0.330356,0.394514,0.383923
1612.225,0.588391,0.465383,0.439714,0.2280712,0.570314,1.105161,0.377397,0.6486488,0.367748,0.392786,1.50823,0.230642,0.7114863,0.3945905,0.268307,0.6824745,0.8555707,0.3817017,0.2830534,0.448334,0.5321441,0.303513,0.204251,0.16027,0.647345,0.2717838,0.446143,0.479067,0.417101,0.636003,0.52525,0.5573351,0.6073796,0.4864611,0.631952,0.3956874,0.5778448,0.621065,0.697835,0.5468712,0.533738,0.3583768,0.470718,0.6149333,0.599644,0.394097,0.292184,0.2018,0.61118,0.324332,0.6083769,0.486565,0.319379,0.3762846,0.457004
1695.15,0.508492,0.397376,0.3273568,0.2206323,0.55338,0.705199,0.3141691,0.531683,0.2902,0.371885,1.21748,0.158734,0.5986535,0.2708613,0.185951,0.548031,0.721255,0.3363501,0.226516,0.3832793,0.44432,0.283669,0.18677,0.114161,0.486691,0.2355036,0.330101,0.404604,0.404294,0.476664,0.4048089,0.414528,0.495629,0.3919883,0.4857637,0.364846,0.4192804,0.493272,0.548954,0.473016,0.4548106,0.337277,0.398038,0.54213,0.471848,0.365903,0.25922,0.192694,0.4843356,0.314244,0.458382,0.375725,0.298399,0.3600418,0.376529
1778.076,0.459219,0.3469706,0.308074,0.2262566,0.5748437,0.542988,0.311272,0.4562721,0.258733,0.3868109,1.01399,0.1155968,0.52866,0.213817,0.1219602,0.484575,0.670034,0.3145966,0.222428,0.352077,0.3897019,0.288379,0.179048,0.097086,0.390871,0.2318687,0.274115,0.373186,0.391785,0.399704,0.331745,0.3527555,0.4256187,0.335943,0.3920526,0.363464,0.3411911,0.431069,0.466716,0.4556921,0.413056,0.323906,0.366627,0.510837,0.4251689,0.366867,0.236086,0.1952833,0.408979,0.318243,0.388996,0.362363,0.2997868,0.353466,0.3559233
1861.001,0.414775,0.3217729,0.28597,0.204895,0.5394869,0.480205,0.2933099,0.414289,0.2348387,0.359419,0.925403,0.0884425,0.4822073,0.186769,0.07840696,0.4561198,0.606543,0.288299,0.1915174,0.3280596,0.363804,0.2686444,0.166247,0.0752196,0.355501,0.207374,0.2477521,0.336403,0.3656665,0.3648353,0.310628,0.336077,0.3907213,0.301132,0.3629255,0.3449956,0.313678,0.383309,0.437999,0.4284589,0.374732,0.2918008,0.333715,0.474256,0.3776018,0.328392,0.210074,0.1737529,0.380099,0.292416,0.353343,0.3449784,0.2784065,0.323733,0.326369
1943.927,0.366841,0.2844739,0.247906,0.168856,0.480422,0.4151575,0.256797,0.363113,0.205387,0.306523,0.837712,0.0622438,0.436102,0.1542052,0.0263784,0.410555,0.5205886,0.240462,0.154451,0.296559,0.3288,0.230297,0.1477088,0.03900665,0.317524,0.166727,0.219485,0.285538,0.327366,0.3216946,0.2773016,0.295953,0.354497,0.257691,0.328405,0.3216001,0.2770806,0.328248,0.396122,0.3628064,0.331179,0.249508,0.3035576,0.424103,0.3143523,0.267901,0.17386,0.143779,0.3472373,0.2543376,0.309189,0.3152704,0.233128,0.28314,0.279425
2026.852,0.322209,0.2584811,0.197998,0.1239924,0.402472,0.3503668,0.209432,0.3201297,0.17769,0.239404,0.762552,0.0257101,0.398253,0.124289,-0.0205715,0.362086,0.424805,0.1924427,0.109498,0.268044,0.3020449,0.182669,0.1263874,0.00198206,0.2854876,0.122292,0.1954364,0.233803,0.286092,0.283839,0.2518947,0.260235,0.3247466,0.217278,0.2975856,0.306263,0.247915,0.280746,0.358713,0.2938425,0.291352,0.2064894,0.264115,0.37306,0.2499211,0.199527,0.139218,0.1077884,0.324469,0.202613,0.2682319,0.2763842,0.1782463,0.230996,0.209294
2109.777,0.2995325,0.2401227,0.1934164,0.106125,0.373188,0.329653,0.1893231,0.299837,0.1665434,0.211518,0.7261,0.0144039,0.381317,0.1134151,-0.04276292,0.3323511,0.3839262,0.1699327,0.0877607,0.257777,0.289542,0.1598474,0.117618,-0.0118524,0.270969,0.1079437,0.188272,0.210441,0.263699,0.2733493,0.2418977,0.247025,0.312141,0.192231,0.285973,0.3094562,0.242238,0.265605,0.3538219,0.2702961,0.273315,0.180389,0.253078,0.351631,0.226961,0.169187,0.1220864,0.0900918,0.309867,0.181168,0.2537012,0.268929,0.156293,0.197205,0.1761748
2192.703,0.293267,0.24147,0.192628,0.0990953,0.3633669,0.331441,0.180796,0.292928,0.164536,0.198129,0.7308307,0.001040529,0.374792,0.112017,-0.04770541,0.313456,0.3670265,0.161808,0.07982005,0.265929,0.291484,0.14964,0.1159919,-0.0155051,0.273395,0.104974,0.1886854,0.200706,0.247356,0.2727396,0.235101,0.245569,0.3171419,0.186018,0.2898668,0.3036367,0.244148,0.266703,0.3583,0.265272,0.272096,0.162431,0.2523927,0.340712,0.221659,0.155146,0.115178,0.0816105,0.3164216,0.1687972,0.249918,0.275197,0.1450794,0.1733762,0.1604362
2275.628,0.295245,0.247856,0.1892699,0.0960248,0.3579332,0.340125,0.177665,0.2980273,0.167979,0.191471,0.7653766,-0.009385196,0.379133,0.115295,-0.0338618,0.3077226,0.3621929,0.1618086,0.0732575,0.2734775,0.3034869,0.143212,0.118701,-0.0112785,0.2870715,0.102126,0.193249,0.200561,0.237437,0.278632,0.2408482,0.258138,0.33041,0.1945708,0.305662,0.3150609,0.2538606,0.277302,0.369391,0.2629473,0.2791635,0.149022,0.254149,0.3388456,0.228161,0.147995,0.116686,0.07785235,0.3333973,0.167473,0.2552471,0.282796,0.142602,0.160295,0.144394
2358.554,0.294457,0.247985,0.1928512,0.08937129,0.3483676,0.346431,0.1755264,0.3028769,0.1625813,0.182335,0.783424,-0.0146724,0.378327,0.115064,-0.0140113,0.302988,0.3634532,0.1597022,0.0633652,0.2938112,0.310521,0.133112,0.121054,-0.005517129,0.286749,0.100811,0.185766,0.196586,0.2207643,0.272351,0.2463414,0.2616658,0.3364486,0.197329,0.3135242,0.326485,0.2520642,0.276433,0.3765691,0.2508492,0.2782158,0.146544,0.262931,0.333505,0.230068,0.143756,0.119791,0.0658592,0.3387923,0.161047,0.253458,0.311818,0.1366177,0.160587,0.1399335
2441.479,0.288663,0.2499228,0.185694,0.09639229,0.349864,0.319909,0.1742306,0.2921429,0.1678216,0.186986,0.771549,-0.0415085,0.376722,0.114689,-0.008328987,0.2996744,0.346246,0.1577201,0.0673909,0.285786,0.3048877,0.136239,0.121655,-0.006287217,0.286348,0.09705938,0.1888086,0.196642,0.2258201,0.271953,0.233129,0.2644475,0.346503,0.188607,0.310936,0.325381,0.252921,0.2756579,0.36463,0.263016,0.283585,0.1327475,0.2564024,0.3268731,0.237117,0.146893,0.11939,0.0790001,0.33798,0.16378,0.25531,0.29938,0.138727,0.15716,0.1280005
2524.405,0.282383,0.237897,0.174011,0.100532,0.344831,0.308371,0.173165,0.283349,0.1651868,0.189748,0.755978,-0.0569233,0.374647,0.110089,-0.001329651,0.299038,0.3336212,0.1542809,0.0634586,0.2875902,0.3000584,0.134297,0.1202242,-0.007663456,0.279157,0.0924457,0.1849067,0.1904,0.219709,0.2637124,0.2224722,0.257093,0.3484823,0.180515,0.3055004,0.30383,0.2488676,0.266232,0.3606,0.2614085,0.2780965,0.124558,0.2499537,0.317927,0.238645,0.150199,0.118898,0.0818236,0.3293003,0.1618007,0.247965,0.308248,0.139835,0.157694,0.1266236
2607.33,0.297748,0.2622431,0.182271,0.106618,0.343502,0.343031,0.1853097,0.309462,0.178143,0.193506,0.828482,-0.0430122,0.401179,0.123726,0.02638578,0.334184,0.3526538,0.1638184,0.06786858,0.29721,0.322586,0.134603,0.126528,0.005149579,0.30935,0.0912943,0.205221,0.204855,0.218758,0.289654,0.2469232,0.282606,0.3774523,0.2011844,0.3365824,0.301893,0.276537,0.287132,0.3930484,0.2712009,0.299698,0.11904,0.269933,0.33256,0.266254,0.159574,0.131726,0.0842403,0.3554533,0.169038,0.267562,0.326104,0.145751,0.1564696,0.1439028
2690.255,0.33736,0.3022826,0.203915,0.113056,0.344601,0.426876,0.2091763,0.3693838,0.206441,0.201607,0.983577,-0.002127893,0.4536,0.157066,0.07574302,0.4003041,0.4037028,0.191055,0.07764809,0.332034,0.3749025,0.133683,0.140342,0.0324889,0.376991,0.09439949,0.2481291,0.237199,0.221715,0.350465,0.297724,0.332453,0.4325461,0.2469581,0.4049881,0.3188422,0.331419,0.3388901,0.45627,0.303247,0.344629,0.118061,0.3060688,0.3695316,0.318304,0.174371,0.157504,0.0870614,0.4176097,0.1836153,0.316163,0.355382,0.162264,0.1542528,0.178086
2773.181,0.389578,0.365481,0.235219,0.1193222,0.347791,0.5534178,0.241824,0.453997,0.246263,0.209958,1.198719,0.0624338,0.524182,0.205826,0.131836,0.4843025,0.4789,0.228181,0.0942307,0.37735,0.444662,0.13506,0.1586009,0.07022624,0.469355,0.103675,0.3076908,0.283978,0.224396,0.436308,0.375402,0.4042308,0.5047255,0.309645,0.496826,0.344736,0.4093963,0.4145805,0.54265,0.352864,0.409554,0.1200057,0.357284,0.424864,0.388455,0.193484,0.192103,0.0920403,0.495772,0.203198,0.389996,0.396072,0.181124,0.1539916,0.221575
2856.106,0.460291,0.444497,0.286037,0.132518,0.353181,0.724738,0.285499,0.563355,0.297535,0.2273239,1.470689,0.152807,0.618838,0.27374,0.205294,0.587948,0.5770958,0.272737,0.1178505,0.4347683,0.535549,0.135412,0.1822379,0.117348,0.59291,0.1219549,0.387043,0.34428,0.231488,0.5480169,0.47492,0.501414,0.5934552,0.3912474,0.6186653,0.374435,0.514174,0.514671,0.6575481,0.4198635,0.4904453,0.125141,0.4244213,0.499182,0.4770526,0.216914,0.234691,0.100399,0.6011792,0.231744,0.48875,0.4536018,0.206914,0.157104,0.276422
2939.032,0.55085,0.540533,0.3553485,0.143437,0.361614,0.949492,0.340822,0.699803,0.364155,0.238861,1.7952,0.263725,0.740821,0.358295,0.288327,0.715348,0.704627,0.331174,0.146762,0.50845,0.6463757,0.136584,0.208387,0.173659,0.747751,0.1452232,0.479576,0.419684,0.241017,0.689209,0.5999905,0.6255937,0.7003969,0.494406,0.7672473,0.416434,0.648424,0.639429,0.8050891,0.489229,0.590995,0.1332936,0.506148,0.5894393,0.583291,0.244135,0.2843864,0.107384,0.7318974,0.262692,0.614965,0.5241226,0.23239,0.164394,0.343258
3021.957,0.655385,0.653212,0.4465594,0.1502179,0.376049,1.22865,0.4100277,0.865201,0.444061,0.2480782,2.17117,0.401283,0.889451,0.460032,0.3804065,0.86964,0.8556216,0.399342,0.184897,0.59155,0.779794,0.139513,0.239875,0.2405401,0.934791,0.1739556,0.591315,0.508961,0.250114,0.862324,0.7471096,0.77719,0.828913,0.621609,0.946545,0.472932,0.817484,0.790679,0.987898,0.5685955,0.7082246,0.138569,0.6053435,0.698049,0.7099511,0.2750506,0.34196,0.1129033,0.884595,0.29491,0.77059,0.609506,0.263572,0.173051,0.421151
3104.883,0.784715,0.787157,0.568013,0.1626905,0.397321,1.55786,0.497863,1.06098,0.5433547,0.264416,2.55925,0.565428,1.06415,0.588936,0.507416,1.06032,1.049643,0.480086,0.2295728,0.696371,0.9383924,0.1414966,0.278168,0.320759,1.16144,0.211237,0.729558,0.616458,0.263998,1.074947,0.92254,0.961457,0.974537,0.767688,1.16167,0.5458311,1.02671,0.972327,1.20876,0.677499,0.848987,0.151311,0.7256997,0.8309227,0.86677,0.310577,0.408502,0.12057,1.071391,0.3344562,0.9601673,0.725255,0.3031982,0.180589,0.516943
3187.808,0.927629,0.941599,0.714251,0.176444,0.423198,1.88359,0.603271,1.29522,0.659778,0.281288,2.83945,0.747217,1.27002,0.742352,0.6614677,1.283469,1.267491,0.577262,0.289698,0.824784,1.12017,0.144902,0.3221897,0.413401,1.42379,0.255413,0.891446,0.7433219,0.2803071,1.32113,1.128638,1.17995,1.141604,0.937387,1.39465,0.640315,1.27756,1.18773,1.466736,0.8028517,1.01032,0.1648625,0.8656046,0.9820892,1.044934,0.349333,0.482975,0.128859,1.28311,0.37913,1.18029,0.862665,0.348212,0.186984,0.629542
3270.733,1.06547,1.082751,0.849248,0.191244,0.4535991,2.05571,0.703708,1.502936,0.7646737,0.300196,3.02955,0.914417,1.441171,0.87762,0.81183,1.47457,1.47177,0.6722188,0.339836,0.941416,1.28992,0.148963,0.365638,0.504193,1.65046,0.2953736,1.034868,0.867637,0.2989623,1.543253,1.301243,1.37024,1.271147,1.09273,1.63097,0.730268,1.50207,1.39102,1.6756,0.917525,1.15945,0.180534,0.997169,1.128363,1.21471,0.389652,0.55528,0.136449,1.46114,0.426278,1.38036,0.982242,0.394053,0.193177,0.736289
3353.659,1.19716,1.23539,0.997658,0.206781,0.485173,2.17346,0.815182,1.740056,0.883618,0.319054,3.285001,1.08836,1.62903,1.03,0.9814461,1.67568,1.72075,0.7751776,0.3999616,1.08413,1.48123,0.1538132,0.413427,0.605039,1.9086,0.3370257,1.20192,1.00431,0.318569,1.78079,1.48006,1.58892,1.41942,1.26913,1.85209,0.843554,1.75333,1.60618,1.91647,1.05321,1.31907,0.197178,1.140686,1.28264,1.404,0.4296989,0.633613,0.144613,1.655805,0.4768932,1.59155,1.10954,0.4431571,0.2009481,0.853309
3436.584,1.3271,1.35919,1.12841,0.221797,0.518841,2.23431,0.918152,1.93431,0.979028,0.3372425,3.214438,1.219913,1.781029,1.15041,1.11973,1.83232,1.90986,0.868033,0.4546539,1.20054,1.63764,0.1573351,0.4556696,0.698144,2.05691,0.375554,1.32771,1.12825,0.3371234,1.968066,1.58275,1.75495,1.51423,1.41894,2.04929,0.946534,1.96858,1.80499,2.10978,1.174764,1.45,0.214394,1.26362,1.41808,1.56701,0.4680689,0.7014971,0.150982,1.870991,0.52433,1.75477,1.225209,0.49048,0.208076,0.9619839
3519.51,1.39875,1.4239,1.21882,0.235434,0.549365,2.21746,0.99335,2.04536,1.03307,0.353418,3.296661,1.271528,1.88534,1.21437,1.20376,1.92788,2.164808,0.9507352,0.49905,1.272393,1.73366,0.162489,0.4890437,0.770253,2.15776,0.406779,1.38887,1.22636,0.353021,2.095012,1.70808,1.829324,1.573779,1.50074,2.13247,1.03572,2.07606,1.89962,2.15372,1.271075,1.535127,0.230414,1.33977,1.5204,1.689323,0.500327,0.749561,0.1576573,1.95375,0.564242,1.86894,1.29683,0.529896,0.215013,1.041914
3602.435,1.13584,1.07432,1.04866,0.228393,0.52576,2.20776,0.841388,1.603493,0.833588,0.3314974,3.22979,0.9159389,1.53978,0.981227,0.8958675,1.58276,1.793576,0.7986159,0.4344241,1.037604,1.3464,0.1537186,0.405919,0.603154,1.72964,0.3591004,1.07686,0.983627,0.330128,1.66645,1.316468,1.43888,1.32793,1.15633,1.65519,0.895783,1.54712,1.533086,1.74057,1.08421,1.24094,0.2034671,1.05766,1.29278,1.37866,0.4489274,0.608745,0.146524,1.503555,0.479122,1.50909,1.26401,0.454691,0.212992,0.862013
3685.361,0.320484,0.237702,0.313688,0.182928,0.405677,0.5090303,0.257668,0.406659,0.22344,0.25098,0.9323087,0.0150082,0.484864,0.186184,0.0447553,0.389353,0.5346999,0.237144,0.1136963,0.294648,0.365446,0.125917,0.142877,0.0552928,0.3581778,0.117205,0.235603,0.252933,0.252127,0.366926,0.2797219,0.34945,0.465111,0.2176547,0.352836,0.3580073,0.3607622,0.373002,0.498177,0.361564,0.351748,0.1219947,0.279619,0.437283,0.328223,0.25261,0.193545,0.109034,0.3248062,0.215154,0.3469255,0.663349,0.197633,0.194847,0.2300478
3768.286,0.199779,0.119657,0.203304,0.180107,0.386021,0.1850006,0.162816,0.252607,0.138623,0.238702,0.536263,-0.119942,0.328721,0.0606372,-0.0708322,0.2173357,0.342971,0.147628,0.0551107,0.188824,0.236979,0.120325,0.101319,-0.02960198,0.1817108,0.0735224,0.131829,0.147805,0.241628,0.191881,0.1440861,0.21558,0.3377961,0.0869673,0.1854885,0.2688288,0.2225932,0.211993,0.3362062,0.245275,0.222921,0.109166,0.174499,0.302174,0.17337,0.216767,0.1277762,0.103182,0.168805,0.171935,0.182173,0.547561,0.154886,0.194054,0.134024
3851.211,0.183618,0.111487,0.2057729,0.186921,0.391262,0.160821,0.160015,0.247865,0.135397,0.2422542,0.504716,-0.1329305,0.315288,0.0522449,-0.08184491,0.205182,0.340049,0.1444324,0.05003889,0.1890704,0.228589,0.121484,0.0995162,-0.0326289,0.17018,0.0718449,0.123952,0.140164,0.2473618,0.183304,0.1359335,0.208261,0.331883,0.07714334,0.174683,0.266006,0.216962,0.202616,0.33109,0.239403,0.212838,0.113628,0.167418,0.294848,0.162446,0.212939,0.124634,0.104436,0.1572682,0.173267,0.168987,0.567842,0.1562543,0.1982893,0.138784
3934.137,0.185686,0.111616,0.2104827,0.196695,0.3973449,0.158642,0.162077,0.251785,0.13774,0.249083,0.500625,-0.135171,0.316077,0.0522685,-0.09123454,0.206342,0.3424897,0.144768,0.0533478,0.192156,0.228845,0.122986,0.09857984,-0.0325375,0.1695185,0.0735916,0.1221781,0.145424,0.2549866,0.1860528,0.137946,0.213394,0.3323966,0.0781605,0.174183,0.2689973,0.2200463,0.206135,0.335999,0.243064,0.213903,0.119576,0.164793,0.297153,0.1606474,0.216488,0.121899,0.107512,0.1513,0.1768927,0.171402,0.592942,0.160673,0.2006541,0.146301
4017.063,0.183462,0.114011,0.209524,0.2061768,0.401718,0.1518802,0.164009,0.253398,0.138311,0.258207,0.4971815,-0.13645,0.31823,0.0501623,-0.104981,0.2084553,0.345718,0.150778,0.0539437,0.196535,0.230481,0.127894,0.098409,-0.0324712,0.169286,0.0748976,0.119402,0.146638,0.261569,0.189661,0.1358813,0.215723,0.3334868,0.0790696,0.1751968,0.2639253,0.222556,0.208087,0.33949,0.2486153,0.213747,0.125445,0.1633212,0.2989115,0.1604101,0.216555,0.120494,0.110382,0.148622,0.179377,0.1717422,0.61802,0.1636921,0.2033117,0.1544004
4099.988,0.178776,0.113874,0.206562,0.2160812,0.406168,0.1405,0.1652,0.255818,0.138363,0.2655504,0.48958,-0.137467,0.318318,0.0464934,-0.121799,0.210716,0.343398,0.151647,0.05232029,0.197252,0.22776,0.130316,0.0974144,-0.0333249,0.1676217,0.07326906,0.113858,0.146305,0.268963,0.1906277,0.1383569,0.215607,0.3377481,0.0766133,0.1717476,0.258914,0.2237596,0.207411,0.33988,0.2510927,0.2123275,0.128557,0.161988,0.299531,0.15886,0.217569,0.118451,0.1134813,0.1451279,0.182105,0.168468,0.641148,0.1674478,0.205446,0.158711
4182.913,0.176291,0.116265,0.2062952,0.2264042,0.409978,0.1296365,0.1680778,0.255358,0.138808,0.272527,0.4835967,-0.130766,0.317543,0.0425867,-0.133639,0.2132822,0.345889,0.152486,0.0521824,0.198327,0.2280185,0.1340565,0.09739751,-0.0332043,0.166299,0.07411799,0.110177,0.148377,0.275098,0.191158,0.1373465,0.214794,0.340612,0.0759935,0.1705513,0.251192,0.225503,0.209059,0.342911,0.2529251,0.2114195,0.1381449,0.1597885,0.301701,0.159785,0.219856,0.117717,0.116954,0.1390203,0.185959,0.1644065,0.665782,0.172838,0.209588,0.163145
4265.839,0.174209,0.120327,0.20776,0.237162,0.4141577,0.125646,0.1728396,0.2568402,0.140258,0.282568,0.484073,-0.122826,0.3194579,0.0420292,-0.1395921,0.216386,0.3491333,0.1597609,0.05341577,0.198981,0.227991,0.140249,0.09834943,-0.0308739,0.168785,0.07583254,0.1104132,0.152254,0.279934,0.195671,0.1394921,0.2171322,0.3467365,0.0776738,0.170389,0.244571,0.23014,0.214138,0.346997,0.2589054,0.2135888,0.1444096,0.1601089,0.307299,0.165169,0.22316,0.1190799,0.120293,0.1396364,0.192099,0.163979,0.6934,0.179698,0.21468,0.165135
4348.764,0.177092,0.129473,0.212694,0.2489451,0.41895,0.131552,0.181027,0.264997,0.145473,0.291684,0.497443,-0.111589,0.326224,0.0447871,-0.1324362,0.224641,0.3562,0.1651375,0.05595835,0.203168,0.235591,0.144913,0.100751,-0.0266743,0.177129,0.0782076,0.115961,0.159767,0.286467,0.203478,0.1479947,0.2255604,0.358279,0.0848472,0.177509,0.240227,0.241257,0.225106,0.357106,0.2698467,0.2192223,0.151932,0.165007,0.3164334,0.177672,0.229804,0.122697,0.125461,0.14394,0.1989017,0.167102,0.721247,0.189366,0.2213355,0.171504
4431.689,0.18497,0.1425868,0.2227144,0.2615863,0.4264165,0.143963,0.1900383,0.275902,0.151896,0.301663,0.5188312,-0.09214723,0.335019,0.0500267,-0.118531,0.233897,0.3652364,0.175225,0.06054083,0.209541,0.242976,0.150582,0.104126,-0.0201282,0.1876841,0.0827558,0.124545,0.169282,0.292896,0.214241,0.154559,0.237985,0.3719215,0.0946888,0.187878,0.233154,0.255472,0.239431,0.3720301,0.281689,0.2284614,0.1572773,0.1716462,0.327545,0.192401,0.237043,0.128273,0.1312068,0.1523026,0.2072414,0.175,0.751258,0.198737,0.229129,0.177864
4514.615,0.188489,0.148743,0.232344,0.274084,0.4356452,0.15115,0.197391,0.280209,0.1573389,0.3127563,0.52866,-0.0833647,0.342536,0.05196804,-0.101065,0.237382,0.3738685,0.1835885,0.0675228,0.210947,0.246999,0.158395,0.106292,-0.0161715,0.194501,0.0836132,0.1313465,0.175304,0.296994,0.2206625,0.158089,0.245925,0.3838724,0.099849,0.1920273,0.2320255,0.265286,0.24935,0.382386,0.289866,0.233613,0.1666599,0.175646,0.337172,0.204203,0.24385,0.132375,0.136282,0.1559957,0.215282,0.179305,0.7828473,0.206244,0.235991,0.1829643
4597.541,0.184495,0.151787,0.234926,0.2854434,0.443042,0.139763,0.1996065,0.276725,0.156766,0.320272,0.520262,-0.084374,0.3397901,0.0481238,-0.08867357,0.232585,0.368044,0.182517,0.0641586,0.207648,0.244283,0.164933,0.105885,-0.0167558,0.1918776,0.08574813,0.132754,0.177532,0.301504,0.217458,0.15237,0.2455,0.387111,0.0989212,0.189292,0.2263986,0.2670646,0.248487,0.3826339,0.2939667,0.232263,0.169467,0.173837,0.33761,0.2082908,0.249754,0.1334022,0.141995,0.1569045,0.220155,0.1745135,0.80515,0.21225,0.244934,0.1807746
4680.466,0.187258,0.160672,0.244349,0.297495,0.453133,0.1399118,0.2045568,0.279885,0.1598866,0.3298889,0.527632,-0.0763569,0.344634,0.0478618,-0.072803,0.235787,0.367715,0.189941,0.06749613,0.2058923,0.2469872,0.170876,0.107611,-0.0142088,0.1957566,0.08568205,0.138361,0.180318,0.303794,0.22282,0.1562154,0.2503907,0.398535,0.1031489,0.19378,0.225176,0.275313,0.255814,0.390339,0.302055,0.236208,0.178496,0.177221,0.3424415,0.217299,0.25694,0.137552,0.148357,0.1576732,0.226673,0.174645,0.829662,0.219097,0.251259,0.1856307
4763.391,0.190612,0.168461,0.257994,0.309461,0.465072,0.144553,0.210263,0.283717,0.1643257,0.3380591,0.539353,-0.0761372,0.3514441,0.04939019,-0.0593642,0.243474,0.371279,0.1957984,0.07018564,0.208419,0.251886,0.1791252,0.1096695,-0.0101664,0.201314,0.0886232,0.143563,0.18928,0.3046782,0.2306348,0.1638992,0.257469,0.4081063,0.1089131,0.1984594,0.2304451,0.284521,0.264367,0.401384,0.3118885,0.241867,0.183397,0.182455,0.350203,0.228403,0.265663,0.142287,0.1522155,0.164929,0.2355653,0.179592,0.858588,0.226748,0.25507,0.192948
4846.317,0.196712,0.1800628,0.272047,0.321108,0.474575,0.149645,0.21633,0.288793,0.1684779,0.344646,0.554249,-0.0773925,0.357781,0.05131842,-0.05264585,0.252327,0.3729505,0.201501,0.07504851,0.212486,0.257095,0.1856456,0.111977,-0.006374947,0.208677,0.0922195,0.1480561,0.195534,0.307636,0.240578,0.163589,0.267115,0.419642,0.116142,0.206745,0.240384,0.294064,0.2731317,0.411408,0.3192838,0.247994,0.189821,0.1867161,0.357997,0.239454,0.274576,0.148046,0.1569067,0.1720565,0.24256,0.181709,0.889535,0.2337495,0.260037,0.202736
4929.242,0.201626,0.187288,0.2858608,0.333454,0.488816,0.156358,0.22284,0.2947196,0.172174,0.3553471,0.567628,-0.07371501,0.3650831,0.05414707,-0.0508962,0.263753,0.380018,0.2096501,0.08177353,0.215183,0.262427,0.192293,0.113763,-0.002357861,0.2154331,0.09326468,0.151236,0.202693,0.3066265,0.250037,0.168918,0.275838,0.4297533,0.122357,0.2125913,0.2506166,0.3028356,0.282221,0.423697,0.327725,0.2544652,0.196904,0.192978,0.366243,0.2503916,0.283219,0.1535111,0.1617128,0.1771836,0.249598,0.1866432,0.920189,0.241549,0.262655,0.2125155
5012.167,0.205723,0.199097,0.301763,0.343807,0.498362,0.163282,0.228471,0.2989718,0.177727,0.358862,0.582214,-0.0753967,0.372864,0.0561436,-0.0556432,0.2712319,0.3871068,0.214805,0.08047545,0.219304,0.2664464,0.2006261,0.1160306,0.001499401,0.222277,0.0972693,0.154728,0.208137,0.3072684,0.2592788,0.175915,0.28304,0.4389429,0.1280093,0.2183577,0.261354,0.312069,0.291153,0.434608,0.3386477,0.260251,0.19516,0.1976854,0.3730778,0.259695,0.2926651,0.158762,0.163953,0.1877528,0.256297,0.189826,0.948128,0.249494,0.266666,0.22161
5095.093,0.210635,0.204745,0.3163,0.3546365,0.513892,0.171911,0.234062,0.304315,0.181673,0.367317,0.595587,-0.07636612,0.3786345,0.0590281,-0.06226716,0.279927,0.390108,0.2213821,0.08525649,0.22037,0.270578,0.208656,0.118135,0.004863993,0.2272388,0.0993189,0.158239,0.21449,0.3070736,0.2677274,0.182904,0.2907958,0.4466507,0.132691,0.225599,0.2750298,0.3212253,0.301041,0.444419,0.3480278,0.266415,0.194734,0.2023753,0.3809822,0.267799,0.299749,0.164053,0.169568,0.197384,0.261115,0.195876,0.975847,0.254829,0.271733,0.231561
5178.019,0.214959,0.213915,0.331362,0.3634291,0.524501,0.1854552,0.239804,0.3099669,0.1862401,0.368838,0.6097761,-0.0743878,0.3835886,0.061759,-0.0726302,0.285674,0.3926189,0.2267087,0.088249,0.229519,0.275458,0.2139704,0.119438,0.00775709,0.2365906,0.09828979,0.1617871,0.221705,0.305707,0.2752318,0.1860278,0.3001015,0.45397,0.1396518,0.2334132,0.2866371,0.331305,0.309146,0.4556954,0.352991,0.2716442,0.2020291,0.209812,0.389703,0.2756064,0.304781,0.168957,0.173133,0.206705,0.267359,0.201456,1.01062,0.259229,0.277915,0.239802
5260.944,0.216109,0.219403,0.339415,0.3710946,0.530332,0.1784283,0.242339,0.3108086,0.186021,0.374034,0.6062118,-0.07559924,0.385208,0.06208466,-0.08009375,0.284619,0.3923663,0.23218,0.0891805,0.232372,0.274945,0.215145,0.1209647,0.008768826,0.232931,0.09940587,0.1602522,0.224509,0.303838,0.2754662,0.185067,0.301078,0.45535,0.141066,0.231042,0.2936644,0.332567,0.3103041,0.459547,0.3544228,0.2722014,0.203944,0.209872,0.393725,0.2758256,0.312837,0.172969,0.175733,0.2098682,0.2702912,0.199282,1.038092,0.262501,0.2799528,0.2442754
5343.869,0.214953,0.2214607,0.3463401,0.37905,0.541373,0.173223,0.243598,0.312861,0.187897,0.3787987,0.6060302,-0.0751276,0.386604,0.0614371,-0.085958,0.283009,0.3947777,0.2331519,0.0912894,0.236967,0.2718468,0.219505,0.1220613,0.009786296,0.23461,0.100494,0.158731,0.224903,0.297623,0.275883,0.187119,0.303726,0.4600763,0.1432708,0.2279771,0.303431,0.3346148,0.316624,0.4625513,0.3584787,0.273432,0.205574,0.213039,0.3974258,0.273689,0.318942,0.1780022,0.176248,0.214621,0.2726372,0.196443,1.06866,0.267043,0.283921,0.245806
5426.795,0.221023,0.2279483,0.3527868,0.388263,0.541924,0.170611,0.2451782,0.312771,0.188971,0.377866,0.608613,-0.071556,0.3877594,0.0606726,-0.08125217,0.281603,0.3987935,0.2359608,0.09158063,0.2390046,0.2722493,0.2248501,0.1206149,0.009247512,0.234685,0.100861,0.1594665,0.227233,0.298131,0.2759457,0.187107,0.306442,0.463498,0.142594,0.230187,0.311587,0.338027,0.3179251,0.467171,0.3624752,0.275902,0.19817,0.2147559,0.400891,0.275287,0.323544,0.176737,0.177585,0.212629,0.274187,0.198426,1.09183,0.2681662,0.285786,0.247694
5509.72,0.2210839,0.229004,0.3577254,0.393924,0.5475542,0.1686836,0.245734,0.313184,0.1907679,0.381964,0.6113277,-0.0655788,0.389055,0.0600784,-0.07248778,0.284319,0.402686,0.2400836,0.09417019,0.240699,0.270856,0.227694,0.120536,0.008241454,0.236261,0.100662,0.1609088,0.229134,0.2942168,0.279384,0.191937,0.309838,0.465029,0.1454035,0.230804,0.313272,0.342584,0.319684,0.470687,0.3639128,0.275517,0.203962,0.217107,0.404093,0.273062,0.327754,0.177325,0.179113,0.2187163,0.273923,0.199951,1.123971,0.270033,0.285864,0.244232
5592.646,0.222568,0.227859,0.3606787,0.400965,0.549358,0.168413,0.246712,0.316361,0.1903012,0.382325,0.611548,-0.0623692,0.3892846,0.059892,-0.06427608,0.284619,0.406138,0.239648,0.099496,0.240739,0.269572,0.23038,0.120691,0.00858347,0.235002,0.105493,0.162072,0.227531,0.292027,0.2808982,0.1897578,0.311773,0.469935,0.143977,0.236435,0.303939,0.346021,0.320408,0.478183,0.367849,0.2777293,0.2004642,0.220075,0.4055382,0.2708171,0.332576,0.178081,0.179747,0.227341,0.2767885,0.2009641,1.14585,0.271574,0.286742,0.24462
5675.571,0.221,0.2329626,0.364237,0.406971,0.546186,0.167623,0.247065,0.316757,0.1914288,0.3812481,0.610713,-0.05782034,0.391077,0.05896873,-0.0476403,0.2880532,0.4099538,0.243064,0.09727384,0.240606,0.2666455,0.2325684,0.119761,0.007807454,0.235921,0.103499,0.164223,0.229369,0.288409,0.283527,0.193974,0.313986,0.467757,0.144303,0.2351124,0.297175,0.3503263,0.323626,0.4800128,0.3687887,0.2776,0.195055,0.221203,0.406789,0.268325,0.331961,0.1786476,0.179614,0.2293299,0.277313,0.201428,1.18037,0.272502,0.287401,0.2444033
5758.497,0.225102,0.227614,0.367973,0.411377,0.548064,0.1663494,0.2475391,0.317398,0.190672,0.3854951,0.6133888,-0.0497808,0.391589,0.05841419,-0.03323861,0.285185,0.4165943,0.2407924,0.09309907,0.2424145,0.263888,0.232166,0.119392,0.007039262,0.237093,0.09998309,0.1660885,0.227541,0.286379,0.286029,0.1898764,0.316522,0.46837,0.144403,0.2348478,0.2923222,0.35286,0.324788,0.482022,0.364593,0.278747,0.1921513,0.2233581,0.406582,0.26603,0.335523,0.178098,0.180272,0.23051,0.277319,0.1982188,1.204212,0.2727385,0.287816,0.242733
5841.422,0.224685,0.2271256,0.3708439,0.416322,0.547356,0.164417,0.247485,0.31725,0.191532,0.3839889,0.611993,-0.04747881,0.389382,0.0585048,-0.02781871,0.2910908,0.422944,0.237843,0.0932345,0.2435946,0.261845,0.2308464,0.119524,0.005816061,0.2366244,0.101862,0.1662299,0.226663,0.2838585,0.286569,0.1843147,0.317908,0.468853,0.145308,0.2340378,0.28904,0.3566729,0.3276592,0.483385,0.367465,0.277446,0.194251,0.225131,0.407232,0.263647,0.3338958,0.1777192,0.1791668,0.2371585,0.278413,0.196097,1.233157,0.272727,0.28704,0.244016
5924.347,0.229442,0.230137,0.374471,0.42064,0.54599,0.162899,0.247864,0.318731,0.193565,0.386388,0.611567,-0.0451277,0.3899644,0.0573722,-0.0238961,0.2908041,0.425054,0.243153,0.09676678,0.251477,0.261158,0.2360343,0.11732,0.004765401,0.237138,0.104154,0.167859,0.225731,0.281095,0.288315,0.179917,0.318595,0.467394,0.144361,0.2376266,0.2841093,0.358633,0.325787,0.4880458,0.3650716,0.278735,0.193017,0.226332,0.407213,0.259752,0.338078,0.177225,0.1801935,0.238153,0.277037,0.19844,1.257977,0.270618,0.290321,0.240855
6007.273,0.225956,0.2215306,0.3799462,0.427512,0.543248,0.163105,0.2482189,0.320471,0.1936328,0.3837789,0.608759,-0.044169,0.393081,0.05837757,-0.0280946,0.2881426,0.4241793,0.238208,0.0973878,0.2426,0.2563574,0.237552,0.1182174,0.003086683,0.237324,0.09570128,0.167255,0.227298,0.281753,0.288527,0.1896949,0.322056,0.4678464,0.146157,0.2344959,0.281074,0.361426,0.326973,0.495329,0.370949,0.2790306,0.18545,0.2295165,0.407441,0.2590696,0.336113,0.176573,0.1805477,0.244159,0.279209,0.197026,1.28705,0.27203,0.289884,0.2410439
6090.198,0.232282,0.231068,0.3845314,0.430549,0.5453019,0.162632,0.2476724,0.319961,0.193934,0.384777,0.61111,-0.0456351,0.388691,0.0584492,-0.03652107,0.289017,0.438208,0.241177,0.0993263,0.244291,0.2548922,0.2345443,0.117122,0.00271885,0.2369084,0.103991,0.1665022,0.228333,0.2811954,0.290283,0.186998,0.324069,0.4653873,0.144517,0.2339196,0.2663008,0.364851,0.328825,0.4932918,0.3731594,0.278995,0.187099,0.2326028,0.407155,0.2564476,0.3419058,0.177101,0.1799668,0.244547,0.278796,0.198387,1.300549,0.2729134,0.2929778,0.2476155
6173.124,0.23006,0.2236217,0.391077,0.4378126,0.5414669,0.161818,0.248127,0.322025,0.197332,0.3923088,0.611801,-0.048091,0.3931562,0.0582735,-0.05164926,0.2859255,0.4385051,0.2411293,0.09774019,0.2424621,0.254575,0.241291,0.1180252,0.003719513,0.237119,0.103239,0.1653039,0.225266,0.28236,0.291757,0.188187,0.323623,0.4758881,0.14677,0.2296986,0.257608,0.368536,0.336654,0.496526,0.370017,0.280243,0.193204,0.233427,0.407148,0.256437,0.34088,0.1755889,0.178883,0.244458,0.279677,0.195234,1.32587,0.2736372,0.296361,0.245453
6256.049,0.236569,0.215403,0.397736,0.442142,0.550363,0.160946,0.249499,0.324032,0.196113,0.3908353,0.612584,-0.0509036,0.390749,0.0560828,-0.06036372,0.2848,0.4478724,0.2457455,0.09353078,0.2309365,0.2546876,0.243483,0.117757,0.003703158,0.238208,0.1060018,0.1630719,0.227784,0.2835515,0.2923263,0.185521,0.3277995,0.4757615,0.1459233,0.2299217,0.264844,0.3722961,0.335831,0.4991608,0.3735219,0.281175,0.191817,0.233742,0.410271,0.2572738,0.337691,0.176138,0.182419,0.249945,0.280688,0.197875,1.33278,0.2740727,0.295805,0.244007
6338.975,0.2304947,0.2206328,0.407073,0.446512,0.544376,0.1607731,0.250251,0.3253127,0.198922,0.393278,0.618123,-0.04976824,0.396388,0.0574486,-0.0671115,0.2825625,0.457414,0.2528997,0.0966309,0.2379,0.2526304,0.243742,0.1179212,0.00437803,0.236286,0.103869,0.165597,0.225421,0.2913682,0.295718,0.1909056,0.3321665,0.47792,0.149603,0.235634,0.2622453,0.376012,0.334406,0.503868,0.3773756,0.283324,0.183094,0.2410857,0.413315,0.2574934,0.343375,0.177564,0.183951,0.252684,0.282099,0.1960737,1.378048,0.2782467,0.3012808,0.2491276
6421.9,0.244896,0.2272766,0.414775,0.453888,0.552254,0.163241,0.2529734,0.327721,0.197881,0.399113,0.623572,-0.0550276,0.401732,0.0587369,-0.0686731,0.289603,0.462646,0.244829,0.09152007,0.226627,0.2542933,0.24958,0.1201653,0.005767888,0.237874,0.108664,0.165257,0.231738,0.290082,0.296945,0.1877197,0.3372533,0.486632,0.1500669,0.2449311,0.2742079,0.380933,0.343823,0.507357,0.374558,0.285059,0.187688,0.246486,0.418241,0.264833,0.343946,0.178215,0.184603,0.2541217,0.28628,0.198977,1.36891,0.2795786,0.302204,0.2472
6504.826,0.244161,0.218102,0.423599,0.4603898,0.556504,0.165496,0.254891,0.332904,0.201422,0.39794,0.630157,-0.04991702,0.397519,0.0568801,-0.066624,0.294861,0.4656367,0.251472,0.0948723,0.2438273,0.256329,0.25364,0.120981,0.007437665,0.2414005,0.101239,0.1637459,0.231134,0.2965513,0.3014856,0.1945092,0.340834,0.4963301,0.151942,0.242333,0.274241,0.3855195,0.35165,0.5167839,0.395551,0.2886904,0.183347,0.2512442,0.42153,0.268249,0.3446905,0.178594,0.1874384,0.2703226,0.287277,0.201285,1.39122,0.281713,0.3015611,0.2524349
6587.751,0.25722,0.223762,0.431562,0.468208,0.56753,0.1690667,0.258977,0.3391699,0.20536,0.407602,0.636991,-0.0477431,0.406723,0.0593308,-0.0574934,0.3005892,0.494983,0.2598457,0.109691,0.2424486,0.256124,0.255621,0.123437,0.01220564,0.2505931,0.108944,0.171376,0.238233,0.304453,0.310066,0.2108425,0.3458837,0.4891286,0.158016,0.24552,0.297996,0.389653,0.353294,0.524203,0.390287,0.293897,0.1879214,0.2554961,0.427672,0.277475,0.351318,0.1820788,0.188971,0.2622858,0.290517,0.1963672,1.43232,0.287931,0.30133,0.2615284
6670.676,0.257524,0.223245,0.443038,0.474099,0.578663,0.172853,0.262937,0.340586,0.204541,0.4162618,0.647594,-0.0446568,0.409636,0.0611936,-0.0412423,0.3028538,0.4936995,0.258696,0.1046361,0.2443607,0.2645832,0.256575,0.12526,0.0173128,0.2511955,0.107186,0.1714915,0.238142,0.3074158,0.315584,0.196392,0.3491958,0.5017888,0.166825,0.2479089,0.3029505,0.3989927,0.359585,0.52889,0.4112155,0.303094,0.1942096,0.264896,0.4363297,0.280014,0.353563,0.1850742,0.196523,0.275831,0.3005409,0.205266,1.42687,0.297949,0.310131,0.2597536
6753.602,0.282106,0.230799,0.4511837,0.481949,0.587509,0.1770124,0.268093,0.346325,0.2069843,0.4210892,0.6543652,-0.0363552,0.412009,0.0651188,-0.02350963,0.307915,0.493657,0.271607,0.101361,0.250869,0.264114,0.260288,0.1277317,0.0201581,0.2578159,0.111889,0.178959,0.2434,0.321718,0.3261405,0.199787,0.3603638,0.4920478,0.170051,0.2541768,0.3018048,0.405734,0.366131,0.536043,0.394085,0.30812,0.1946539,0.2740553,0.444379,0.293752,0.359133,0.187886,0.1979545,0.273407,0.300892,0.2058811,1.46738,0.2970777,0.3119075,0.2700915
6836.527,0.275514,0.229585,0.461628,0.495044,0.6036946,0.184709,0.2752239,0.356105,0.2195236,0.426554,0.670554,-0.03311891,0.426331,0.0680644,-0.0180037,0.322769,0.4901073,0.272584,0.0933792,0.243639,0.2695261,0.262966,0.131703,0.0279997,0.263693,0.109976,0.183337,0.253756,0.3298176,0.33374,0.206722,0.366212,0.5098782,0.181841,0.255115,0.3134592,0.417303,0.375844,0.5409928,0.418401,0.317416,0.2176565,0.285158,0.4561469,0.2990703,0.37053,0.1948518,0.199499,0.2915633,0.3099463,0.210191,1.45659,0.30743,0.31553,0.2802382
6919.453,0.276672,0.249195,0.471795,0.4992098,0.621877,0.191424,0.281898,0.364529,0.220113,0.435347,0.6832985,-0.0211624,0.443299,0.0699093,0.003809768,0.327229,0.5278949,0.2983498,0.118953,0.278138,0.273525,0.2773416,0.1332438,0.0320169,0.269691,0.113776,0.197094,0.2607627,0.327663,0.3452367,0.226819,0.379845,0.5177951,0.182545,0.2688738,0.344553,0.429203,0.384421,0.5520557,0.4212327,0.325517,0.194968,0.287174,0.467754,0.313312,0.376927,0.19792,0.206277,0.290251,0.315494,0.216236,1.51167,0.317092,0.318873,0.284157
7002.378,0.323641,0.2385077,0.483379,0.508002,0.625933,0.2018849,0.291081,0.373974,0.2263796,0.4397116,0.6954416,-0.01090586,0.437802,0.0738823,0.0134294,0.33018,0.5252216,0.28246,0.1244625,0.2714953,0.2832872,0.2820436,0.139309,0.04390254,0.279327,0.10974,0.204905,0.265945,0.34347,0.361246,0.2231157,0.385619,0.5462097,0.192365,0.287927,0.328631,0.439792,0.403907,0.550365,0.4391491,0.333721,0.1948421,0.3069393,0.47577,0.3186741,0.3804126,0.202077,0.2138062,0.286132,0.331295,0.2193802,1.56634,0.328554,0.3241828,0.301881
7085.304,0.3223544,0.251779,0.492437,0.515048,0.6250544,0.21075,0.299661,0.378902,0.225609,0.4582388,0.719078,0.000810459,0.456179,0.0779193,0.0159217,0.3364107,0.537814,0.290595,0.1153806,0.27874,0.2906805,0.288706,0.146228,0.0478019,0.290227,0.121515,0.208184,0.27928,0.358,0.368308,0.2251776,0.400871,0.5181542,0.204923,0.285209,0.3097681,0.455884,0.410397,0.5671067,0.438729,0.350551,0.224359,0.3106828,0.4883933,0.330395,0.394027,0.2107567,0.2200038,0.3082802,0.337629,0.22508,1.51358,0.339322,0.332833,0.297364
7168.229,0.333695,0.268713,0.500925,0.523766,0.6481633,0.221275,0.308288,0.386865,0.243658,0.4584175,0.732901,0.007462498,0.45417,0.0823038,0.020944,0.341077,0.5331435,0.3014111,0.109574,0.279277,0.300406,0.302105,0.147518,0.0552657,0.300447,0.140111,0.217069,0.290839,0.368198,0.378885,0.2547708,0.404053,0.5636761,0.2062213,0.27777,0.336593,0.4643314,0.421752,0.584471,0.459232,0.349964,0.225746,0.320664,0.497807,0.344572,0.405293,0.215089,0.227181,0.3146112,0.347445,0.228786,1.5147,0.33736,0.345096,0.3137434
7251.154,0.344989,0.2335698,0.5091714,0.53945,0.67109,0.227798,0.319628,0.401934,0.2436,0.484826,0.742557,0.01615,0.4642783,0.085225,0.009899162,0.3525563,0.5640314,0.3102642,0.14071,0.293367,0.30492,0.2995312,0.1507924,0.062285,0.3057961,0.12889,0.218944,0.2970487,0.3648558,0.391988,0.230539,0.4143101,0.562153,0.230833,0.3104103,0.336428,0.474186,0.446485,0.601093,0.4751446,0.361775,0.249137,0.3381995,0.5082472,0.3551635,0.412709,0.2215553,0.230548,0.339705,0.35699,0.23252,1.536763,0.3567657,0.344166,0.306522
7334.08,0.348027,0.270069,0.52053,0.540122,0.681142,0.238607,0.3284037,0.413283,0.241967,0.4710764,0.778019,0.02353221,0.4804166,0.0885459,0.010457,0.363866,0.5507063,0.289608,0.14422,0.260536,0.3164985,0.3156735,0.157264,0.06784338,0.3195307,0.1439085,0.231592,0.312272,0.374981,0.401111,0.233096,0.431401,0.561035,0.223979,0.312032,0.339858,0.4900343,0.472667,0.609339,0.4720059,0.377738,0.226119,0.3523484,0.521768,0.374503,0.427626,0.2300374,0.2358277,0.335132,0.358749,0.2321688,1.65955,0.365821,0.3548756,0.329963
7417.005,0.3506729,0.248252,0.5308748,0.549353,0.703185,0.240634,0.335584,0.418543,0.254891,0.503335,0.774963,0.0185233,0.493229,0.0892727,0.0140766,0.397916,0.570256,0.34035,0.1473027,0.3101951,0.317013,0.3198878,0.156669,0.08116035,0.323918,0.1394805,0.2293271,0.320714,0.376663,0.416564,0.2406116,0.4299501,0.5551867,0.246712,0.315274,0.373839,0.49519,0.453197,0.651018,0.5316921,0.382441,0.244809,0.361879,0.536964,0.3828237,0.440271,0.235319,0.2536234,0.3324385,0.371358,0.2470822,1.65044,0.375392,0.3638955,0.337717
7499.931,0.433297,0.267744,0.5417106,0.567513,0.688615,0.253399,0.347423,0.4318114,0.2730367,0.4856431,0.791561,0.03943317,0.499397,0.09864167,0.0252776,0.396054,0.5617371,0.3378543,0.152812,0.307885,0.344209,0.3489002,0.1625405,0.0850935,0.3314,0.143338,0.243419,0.339902,0.395005,0.427183,0.269833,0.44903,0.5615196,0.249634,0.32369,0.347044,0.502686,0.506828,0.60622,0.5225238,0.3990938,0.224585,0.3719371,0.554212,0.390423,0.430016,0.244663,0.248989,0.3561077,0.3747676,0.250691,1.61341,0.3854931,0.358132,0.334236
7582.856,0.405537,0.294031,0.546104,0.567293,0.727151,0.260445,0.355572,0.439006,0.264683,0.540888,0.8326636,0.03486048,0.50446,0.101612,0.0261857,0.407985,0.6127351,0.3510374,0.152538,0.3077382,0.351874,0.335006,0.166635,0.0840161,0.344142,0.1427718,0.244976,0.352745,0.389816,0.4408764,0.281969,0.450217,0.5902314,0.2568503,0.302679,0.34958,0.513816,0.509997,0.623041,0.517794,0.410212,0.237653,0.376541,0.555841,0.395693,0.445479,0.245637,0.271007,0.3470071,0.392513,0.247573,1.82118,0.397516,0.3582274,0.342895
7665.782,0.393832,0.2945774,0.556573,0.561702,0.737755,0.275741,0.364883,0.4636,0.262981,0.51542,0.835982,0.0551259,0.541302,0.104749,0.0204989,0.4068691,0.641518,0.35975,0.1303785,0.3065773,0.341505,0.385278,0.171001,0.090457,0.354269,0.163638,0.254455,0.354959,0.39548,0.448944,0.291857,0.466943,0.5855486,0.258929,0.328247,0.303466,0.525632,0.496723,0.6181108,0.5153799,0.4193883,0.276338,0.380965,0.568031,0.400417,0.4575963,0.253163,0.259654,0.339242,0.409926,0.2643688,2.1004,0.402908,0.377468,0.35805
7748.707,0.424081,0.303217,0.5585013,0.5748192,0.752931,0.287553,0.375943,0.47974,0.279564,0.527117,0.871726,0.04972514,0.546528,0.1159335,0.0454854,0.452151,0.6275888,0.3715344,0.1207318,0.3675787,0.3609037,0.325198,0.1731,0.0965434,0.355101,0.172122,0.2623823,0.394117,0.4318533,0.4551439,0.2701723,0.474396,0.6165492,0.260282,0.333255,0.447552,0.5357071,0.546513,0.687489,0.543316,0.427056,0.256146,0.3792536,0.5749926,0.396056,0.481343,0.262346,0.272219,0.3730337,0.4072992,0.2673442,1.664993,0.420152,0.3993829,0.366356
7831.632,0.446577,0.308445,0.5751138,0.5879507,0.801989,0.310427,0.382302,0.483512,0.284019,0.575225,0.929289,0.0572168,0.5639177,0.117258,0.0623368,0.450287,0.581723,0.3906956,0.1470811,0.2775771,0.381491,0.340323,0.177805,0.110007,0.3839541,0.135973,0.296325,0.35978,0.4423839,0.466778,0.259,0.4775622,0.583916,0.301484,0.381953,0.337465,0.528024,0.506277,0.637114,0.551487,0.4538269,0.315586,0.413781,0.5938564,0.4372315,0.486114,0.265086,0.278037,0.3993061,0.43154,0.248377,2.31375,0.444375,0.407751,0.3862695
7914.558,0.4211316,0.325032,0.5814383,0.577409,0.81944,0.322651,0.392979,0.4892155,0.2917857,0.566152,0.921502,0.0606608,0.609468,0.1125655,0.115078,0.469203,0.7728759,0.352179,0.1580764,0.3802097,0.3925884,0.346066,0.1785521,0.112806,0.392206,0.1203602,0.286468,0.380962,0.403491,0.477279,0.3742064,0.5083119,0.6952255,0.307994,0.4112066,0.285753,0.53621,0.562862,0.7025785,0.6275253,0.455651,0.28363,0.423735,0.601624,0.409895,0.537677,0.275358,0.282218,0.386385,0.4252287,0.31733,1.782467,0.431384,0.3765499,0.441835
7997.483,0.455905,0.297633,0.57215,0.600874,0.833075,0.343637,0.3943796,0.522575,0.32677,0.557986,0.933868,0.0781961,0.603648,0.123347,0.0945774,0.447094,0.6994678,0.390766,0.2000423,0.3989692,0.4275137,0.432665,0.19216,0.113938,0.443097,0.1234977,0.313618,0.400129,0.412295,0.488518,0.220714,0.540434,0.641897,0.2950226,0.338692,0.8454394,0.540996,0.505637,0.686639,0.63225,0.491477,0.852141,0.424719,0.628584,0.469452,0.515843,0.270294,0.286963,0.431039,0.487949,0.263328,1.323927,0.459139,0.393011,0.383838
8080.409,0.837307,0.411585,0.579296,0.5842751,0.9660852,0.3513804,0.408357,0.515449,0.346562,0.612659,0.941162,0.0659915,0.71911,0.14436,0.0275764,0.5396242,0.6715607,0.484445,0.179033,0.440946,0.3983187,0.369215,0.1813574,0.111554,0.401056,0.125908,0.314025,0.4243674,0.4839567,0.4779894,0.224406,0.560812,0.675401,0.3402713,0.3060282,0.5870833,0.542444,0.539994,0.6405258,0.553916,0.460767,0.0474463,0.452673,0.638615,0.471174,0.457615,0.2818964,0.3335376,0.34597,0.4119649,0.317824,1.75925,0.458697,0.427148,0.398831
8163.334,1.34002,0.706755,0.590809,0.557365,0.946915,0.359051,0.427314,0.572667,0.291853,0.757947,1.00249,0.122221,0.63705,0.153658,0.127537,0.475363,1.6476,0.419844,0.210773,1.42784,0.42593,0.283583,0.1778389,0.0975808,0.4066496,0.09489706,0.35809,0.4961006,0.4480822,0.511676,0.392039,0.540269,1.06476,0.278409,0.48606,0.766506,0.5480392,0.574874,0.656694,0.630703,0.504892,0.3207108,0.497808,0.649153,0.391108,0.5004854,0.2899006,0.2968449,0.46423,0.5041668,0.2896665,1.7476,0.4942001,0.4077512,0.514781
8246.26,1.46654,0.5533654,0.5836321,0.554403,1.20168,0.433389,0.4249067,0.596739,0.349166,0.865151,1.27796,0.1297611,1.04801,0.171576,-0.0803848,0.559987,1.07366,0.542618,0.3949604,0.536476,0.42416,0.964249,0.1950198,0.088543,0.4568748,0.235126,0.321387,0.424082,0.521604,0.4935427,-0.167169,0.5394318,0.653387,0.3007202,1.17868,0.851304,0.510214,0.889814,0.892482,0.481496,0.588846,0.607243,0.508392,0.66001,0.474006,0.513563,0.287565,0.336037,0.3354002,0.593546,0.3637459,2.01385,0.533958,0.457235,0.5276776
8329.185,1.19778,-0.00793692,0.547131,0.5275464,1.00219,0.433084,0.445516,0.539021,0.245108,1.6674,1.4721,0.11864,0.569032,0.1949182,0.198953,0.5910215,2.05805,0.465169,0.2575406,1.70508,0.417547,0.739898,0.190807,0.0650744,0.478042,0.188359,0.3679836,0.4528793,0.461647,0.543379,0.770126,0.572035,1.35931,0.224415,0.5072,3.05397,0.4973211,0.743348,1.10171,0.832259,0.565036,2.007907,0.660839,0.758238,0.505224,0.615239,0.30163,0.353847,0.1008761,0.40995,0.373651,2.367796,0.514783,0.611821,0.41622
8412.11,1.8563,0.556412,0.5789045,0.553031,2.349562,0.5144693,0.482537,0.645355,0.430315,0.971726,1.5088,0.0693098,2.59607,0.206216,-0.189183,0.497022,5.70565,0.618359,0.7388983,1.36033,0.461226,0.6460197,0.215114,0.03110442,0.524176,0.1699097,0.4098887,0.559486,1.07156,0.515487,0.042407,0.540316,0.898787,0.4716463,0.8156698,1.54508,0.454806,0.622677,1.08072,0.3109509,0.548383,0.848309,0.614577,0.7926275,0.9147699,1.12027,0.2829378,0.390391,0.572442,0.575935,0.380155,2.10704,0.469263,0.7598506,0.556811
8495.036,1.96498,0.114242,0.60737,0.610727,1.55172,0.561189,0.520037,0.985278,0.747741,4.21532,2.4396,0.246033,0.8530702,0.251921,0.506181,2.25113,4.232586,0.3823763,1.85496,1.46476,0.439394,1.41435,0.188956,0.0517534,0.484654,3.30867,0.445484,0.3525932,0.5700816,0.592893,0.8253357,0.542049,0.503842,0.505676,1.59366,2.36387,0.42997,1.01241,1.91167,1.75005,0.57435,4.060371,0.511902,0.9177524,1.13828,0.372819,0.3798886,0.439889,1.87053,0.975019,0.687411,3.22171,0.5485234,0.151971,0.6919511
8500.821,4.37876,6,0.578661,0.6018879,0.4579465,0.5489048,0.490723,2.36999,0.270446,2.27958,2.52689,-0.02017467,0.741302,0.268485,0.1201,0.597379,0.8859149,0.538051,0.194443,0.366406,0.625092,2.33497,0.291629,-0.008311963,0.458423,0.09219151,0.540448,0.7520096,1.16203,0.46485,-0.08518945,0.5475094,3.29388,0.105769,0.353903,3.271,0.498356,0,0.593482,0.513602,0.5693517,0.321104,0.3770955,0.7933593,0.738521,0.376412,0.329143,0.307118,6,0.6789613,0.151963,1.39146,0.391772,0.386859,2.35611