File: Glass FTIR Baseline Share With Sarah 2023/H2O_Free_Avg+PCA.csv
Wavenumber,Average_Baseline,PCA_1,PCA_2,PCA_3,PCA_4
1276.666,0.5,-7.32093e-16,7.93916e-16,-2.19084e-15,6.49514e-16
1278.594,0.47176,0.00187303,-0.00698923,-0.00850052,0.0178085
1280.523,0.444678,0.00369205,-0.0135768,-0.0164645,0.0339796
1282.452,0.418716,0.00545852,-0.0197764,-0.0239102,0.0485833
1284.38,0.393841,0.00717386,-0.0256018,-0.0308559,0.0616883
1286.308,0.370015,0.00883945,-0.0310663,-0.037319,0.0733627
1288.237,0.347204,0.0104567,-0.0361832,-0.0433167,0.0836733
1290.166,0.325374,0.0120269,-0.0409652,-0.0488663,0.0926847
1292.094,0.304491,0.0135515,-0.045425,-0.0539846,0.10046
1294.022,0.284523,0.0150316,-0.049575,-0.0586881,0.107063
1295.951,0.265436,0.0164687,-0.0534273,-0.062993,0.112554
1297.88,0.2472,0.017864,-0.0569938,-0.0669153,0.116993
1299.808,0.229783,0.0192187,-0.060286,-0.0704709,0.120437
1301.736,0.213156,0.0205341,-0.0633154,-0.073675,0.122945
1303.665,0.197286,0.0218114,-0.066093,-0.0765427,0.124572
1305.594,0.182147,0.0230516,-0.0686297,-0.0790889,0.125372
1307.522,0.167709,0.0242561,-0.0709362,-0.0813283,0.125398
1309.45,0.153944,0.0254258,-0.0730227,-0.0832751,0.124703
1311.379,0.140824,0.026562,-0.0748994,-0.0849432,0.123335
1313.307,0.128323,0.0276657,-0.0765762,-0.0863465,0.121345
1315.236,0.116415,0.028738,-0.0780626,-0.0874983,0.118781
1317.164,0.105074,0.0297799,-0.0793681,-0.0884117,0.115687
1319.093,0.0942752,0.0307924,-0.0805017,-0.0890997,0.11211
1321.021,0.0839941,0.0317766,-0.0814723,-0.0895747,0.108093
1322.95,0.074207,0.0327334,-0.0822885,-0.0898492,0.103679
1324.878,0.0648907,0.0336638,-0.0829588,-0.0899349,0.0989078
1326.807,0.0560228,0.0345686,-0.0834913,-0.0898438,0.0938201
1328.735,0.0475813,0.0354489,-0.0838938,-0.089587,0.0884539
1330.664,0.0395447,0.0363054,-0.0841739,-0.0891759,0.0828464
1332.592,0.0318925,0.0371391,-0.0843392,-0.0886211,0.077033
1334.521,0.0246045,0.0379507,-0.0843967,-0.0879333,0.0710483
1336.449,0.0176611,0.0387412,-0.0843533,-0.0871225,0.0649252
1338.378,0.0110435,0.0395112,-0.0842158,-0.0861989,0.0586954
1340.307,0.00473328,0.0402616,-0.0839906,-0.085172,0.0523892
1342.235,-0.00128732,0.0409931,-0.0836838,-0.0840512,0.0460356
1344.163,-0.00703538,0.0417064,-0.0833014,-0.0828455,0.0396624
1346.092,-0.0125274,0.0424023,-0.0828491,-0.0815637,0.0332959
1348.021,-0.0177794,0.0430813,-0.0823323,-0.0802142,0.0269611
1349.949,-0.0228067,0.0437442,-0.0817564,-0.0788052,0.0206817
1351.877,-0.027624,0.0443915,-0.0811262,-0.0773445,0.01448
1353.806,-0.0322454,0.0450239,-0.0804466,-0.0758398,0.00837705
1355.734,-0.0366847,0.045642,-0.079722,-0.0742982,0.00239255
1357.663,-0.0409546,0.0462464,-0.0789567,-0.0727267,-0.00345517
1359.591,-0.0450676,0.0468374,-0.0781548,-0.071132,-0.00914907
1361.52,-0.0490354,0.0474158,-0.0773201,-0.0695203,-0.0146735
1363.448,-0.0528693,0.0479819,-0.076456,-0.0678978,-0.020014
1365.377,-0.0569501,0.0485297,-0.0757017,-0.0661908,-0.0245704
1367.305,-0.0609067,0.0490722,-0.0749258,-0.06447,-0.0288682
1369.234,-0.064727,0.0496025,-0.0741331,-0.0627482,-0.0330092
1371.162,-0.0684106,0.0501163,-0.0733004,-0.06108,-0.0370238
1373.091,-0.0719672,0.0506177,-0.07244,-0.0594539,-0.0408212
1375.019,-0.0754133,0.0511124,-0.0715598,-0.057878,-0.0443059
1376.948,-0.0787448,0.0516005,-0.0706339,-0.0563517,-0.0475714
1378.876,-0.0819711,0.0520843,-0.0696741,-0.0548715,-0.050686
1380.805,-0.0850959,0.0525619,-0.0687104,-0.0534479,-0.0536173
1382.733,-0.0881319,0.053037,-0.067724,-0.0520707,-0.0563354
1384.662,-0.0910782,0.053509,-0.0667082,-0.0507278,-0.0589215
1386.59,-0.0939403,0.0539791,-0.0656766,-0.0494026,-0.0614364
1388.519,-0.0967177,0.0544452,-0.0646198,-0.048101,-0.0638431
1390.447,-0.0994173,0.054908,-0.0635177,-0.046834,-0.0661062
1392.376,-0.102041,0.0553621,-0.062382,-0.0456083,-0.0682531
1394.304,-0.104601,0.0557985,-0.0612241,-0.044408,-0.0703017
1396.233,-0.107086,0.0562156,-0.0600245,-0.0432674,-0.0722483
1398.161,-0.109504,0.0566125,-0.0587964,-0.0421794,-0.0740829
1400.09,-0.11186,0.0569951,-0.0575639,-0.0411392,-0.0757976
1402.018,-0.114156,0.0573701,-0.0563274,-0.0401413,-0.0774056
1403.947,-0.116398,0.0577312,-0.0550898,-0.0391691,-0.0789288
1405.875,-0.118591,0.0580783,-0.0538636,-0.0382102,-0.0803478
1407.804,-0.12074,0.0584146,-0.05266,-0.037265,-0.0815742
1409.732,-0.122849,0.0587474,-0.0514812,-0.0363046,-0.0826587
1411.661,-0.124921,0.0590733,-0.0503438,-0.0353225,-0.0836198
1413.589,-0.126966,0.0593875,-0.0492381,-0.0343209,-0.084436
1415.518,-0.128984,0.059687,-0.0481503,-0.0333209,-0.0850881
1417.446,-0.130975,0.0599741,-0.0470621,-0.032322,-0.0856412
1419.375,-0.13294,0.0602411,-0.0459726,-0.0313436,-0.0861823
1421.303,-0.134874,0.0604937,-0.0448264,-0.030425,-0.086726
1423.232,-0.136782,0.0607322,-0.0436707,-0.0295456,-0.0871654
1425.16,-0.138663,0.0609646,-0.0424944,-0.0286968,-0.0875101
1427.089,-0.140524,0.0611898,-0.0413013,-0.0278916,-0.0876551
1429.017,-0.142363,0.0614125,-0.0400729,-0.0271455,-0.087545
1430.946,-0.144172,0.0616346,-0.0387973,-0.0264579,-0.0871956
1432.874,-0.14595,0.0618598,-0.0374677,-0.0258335,-0.0865912
1434.803,-0.147703,0.0620914,-0.036113,-0.0252402,-0.0857429
1436.731,-0.149434,0.0623315,-0.0347453,-0.0246486,-0.0846833
1438.66,-0.151139,0.0625752,-0.0333496,-0.0240893,-0.0834016
1440.588,-0.152818,0.0628163,-0.031905,-0.0235764,-0.0819356
1442.517,-0.154478,0.063051,-0.0304557,-0.0230776,-0.0803861
1444.445,-0.156123,0.0632794,-0.0290253,-0.0225726,-0.0788024
1446.374,-0.157742,0.0635051,-0.0276145,-0.022085,-0.0772143
1448.302,-0.159328,0.0637294,-0.026222,-0.0216226,-0.0756351
1450.231,-0.160888,0.0639539,-0.0248775,-0.0211708,-0.0739964
1452.159,-0.16242,0.0641717,-0.0235524,-0.0207509,-0.0722984
1454.088,-0.163911,0.0643819,-0.0222134,-0.0204048,-0.0706163
1456.016,-0.165362,0.0645863,-0.0208532,-0.020147,-0.06893
1457.945,-0.166773,0.0647792,-0.0194631,-0.0199961,-0.0672053
1459.873,-0.168145,0.0649702,-0.0180525,-0.0199236,-0.0654927
1461.802,-0.169489,0.0651615,-0.0166669,-0.0198923,-0.0637538
1463.73,-0.170807,0.0653488,-0.0153034,-0.0199059,-0.0619661
1465.659,-0.172095,0.0655264,-0.013958,-0.0199602,-0.0601931
1467.587,-0.173354,0.0656928,-0.0126457,-0.0200227,-0.0585137
1469.516,-0.174596,0.0658469,-0.0114075,-0.0200365,-0.0569832
1471.444,-0.175816,0.0659922,-0.0102483,-0.0199798,-0.0556103
1473.373,-0.177002,0.0661274,-0.00916303,-0.0198529,-0.0544426
1475.301,-0.178164,0.0662501,-0.00815449,-0.0196471,-0.0533572
1477.23,-0.179301,0.0663598,-0.00723345,-0.0193529,-0.0523157
1479.158,-0.180404,0.0664578,-0.00635699,-0.0190004,-0.0513607
1481.087,-0.18147,0.066543,-0.00550429,-0.0186136,-0.050451
1483.015,-0.182498,0.0666206,-0.00466025,-0.018207,-0.0495271
1484.944,-0.183493,0.0666912,-0.00385955,-0.0177529,-0.0485934
1486.872,-0.184457,0.0667703,-0.00312882,-0.0172245,-0.0476466
1488.801,-0.185392,0.0668512,-0.00246235,-0.0166579,-0.0466643
1490.729,-0.186294,0.0669286,-0.00181523,-0.0160813,-0.0457393
1492.658,-0.187161,0.0670038,-0.0011889,-0.0154851,-0.0448607
1494.586,-0.188,0.0670802,-0.000596713,-0.014873,-0.0439739
1496.515,-0.188812,0.0671575,-2.18098e-05,-0.0142575,-0.0430753
1498.443,-0.189595,0.0672331,0.000529564,-0.0136475,-0.042173
1500.372,-0.189595,0.0672331,0.000529564,-0.0136475,-0.042173
1502.3,-0.190331,0.0672878,0.00133617,-0.0132676,-0.040849
1504.229,-0.19105,0.0673359,0.00213207,-0.0128839,-0.0395394
1506.157,-0.191754,0.0673775,0.00291744,-0.0124965,-0.0382452
1508.086,-0.192442,0.0674126,0.00369246,-0.0121053,-0.0369677
1510.014,-0.193116,0.0674411,0.00445728,-0.0117104,-0.0357079
1511.943,-0.193775,0.0674632,0.00521209,-0.011312,-0.0344668
1513.871,-0.194421,0.0674789,0.00595704,-0.0109101,-0.0332452
1515.8,-0.195054,0.0674883,0.0066923,-0.0105051,-0.032044
1517.728,-0.195674,0.0674913,0.00741804,-0.0100971,-0.0308638
1519.657,-0.196282,0.0674881,0.00813441,-0.00968638,-0.0297053
1521.585,-0.196879,0.0674787,0.00884156,-0.0092733,-0.028569
1523.514,-0.197465,0.0674633,0.00953967,-0.00885821,-0.0274555
1525.442,-0.198041,0.0674419,0.0102289,-0.00844151,-0.026365
1527.371,-0.198607,0.0674145,0.0109093,-0.00802361,-0.0252979
1529.299,-0.199163,0.0673813,0.0115812,-0.00760502,-0.0242543
1531.228,-0.19966,0.0673566,0.0121954,-0.00693042,-0.0231194
1533.156,-0.20015,0.0673264,0.0128,-0.00623847,-0.0220236
1535.085,-0.200635,0.0672924,0.0133896,-0.00554103,-0.0209918
1537.013,-0.201112,0.0672563,0.0139614,-0.00486084,-0.0200446
1538.942,-0.201583,0.0672133,0.0145284,-0.00422121,-0.01917
1540.87,-0.202048,0.0671617,0.0151035,-0.00361889,-0.0184031
1542.799,-0.202509,0.0671004,0.0156883,-0.00305705,-0.0177439
1544.727,-0.202968,0.0670301,0.01628,-0.00253108,-0.0171686
1546.656,-0.203431,0.0669508,0.016862,-0.00202393,-0.0166099
1548.584,-0.203896,0.0668641,0.0174357,-0.00153768,-0.0160725
1550.513,-0.204359,0.06677,0.0180095,-0.00108303,-0.0156309
1552.441,-0.204822,0.0666668,0.0185798,-0.000661738,-0.0152509
1554.37,-0.205283,0.0665533,0.0191535,-0.000285695,-0.0149244
1556.298,-0.205746,0.0664285,0.0197305,4.43812e-05,-0.01459
1558.227,-0.206211,0.066295,0.0203041,0.000351546,-0.014279
1560.155,-0.206674,0.0661583,0.0208787,0.000631397,-0.0140431
1562.084,-0.207136,0.0660175,0.0214582,0.000850568,-0.0137881
1564.012,-0.207606,0.0658748,0.0220158,0.00102019,-0.0134114
1565.941,-0.208079,0.0657359,0.0225654,0.00114279,-0.0129468
1567.869,-0.208554,0.0656018,0.0231047,0.00122274,-0.0124309
1569.798,-0.209034,0.0654732,0.0236256,0.00126268,-0.0118395
1571.726,-0.209515,0.0653527,0.0241423,0.00126402,-0.0112037
1573.655,-0.21,0.0652369,0.0246638,0.00122119,-0.0104582
1575.583,-0.210487,0.065125,0.0252112,0.0011203,-0.00958271
1577.512,-0.210976,0.0650147,0.0257782,0.000958197,-0.00860278
1579.44,-0.211467,0.064904,0.0263629,0.000740295,-0.00752156
1581.369,-0.211961,0.0647909,0.0269614,0.000475812,-0.0063791
1583.297,-0.212457,0.0646756,0.0275742,0.000153906,-0.00513738
1585.226,-0.212964,0.0645598,0.0281785,-0.000215365,-0.00374509
1587.154,-0.213479,0.0644459,0.0287743,-0.000639848,-0.0022407
1589.083,-0.213998,0.0643325,0.0293715,-0.00111395,-0.000703678
1591.011,-0.214522,0.0642228,0.0299621,-0.00162764,0.000867654
1592.94,-0.21505,0.0641189,0.0305314,-0.00215865,0.00247754
1594.868,-0.21558,0.0640241,0.031077,-0.00269827,0.00409822
1596.797,-0.216113,0.0639373,0.0315893,-0.00324437,0.00568947
1598.725,-0.21665,0.0638575,0.0320514,-0.00377225,0.00724554
1600.654,-0.21719,0.0637835,0.0324811,-0.00429322,0.00879346
1602.582,-0.217736,0.0637147,0.0328778,-0.00480324,0.0103319
1604.511,-0.218288,0.06365,0.0332344,-0.00529118,0.0118236
1606.439,-0.218851,0.0635856,0.0335544,-0.00575402,0.0132907
1608.368,-0.21942,0.0635242,0.0338489,-0.00619773,0.0147146
1610.296,-0.219998,0.0634652,0.0341139,-0.00662059,0.0160783
1612.225,-0.220589,0.0634067,0.0343436,-0.00702924,0.0174007
1614.153,-0.221191,0.0633464,0.034548,-0.00742142,0.0186686
1616.082,-0.221806,0.0632791,0.0347323,-0.00780322,0.0199196
1618.01,-0.222431,0.0632079,0.034907,-0.00818412,0.0211783
1619.939,-0.223066,0.0631353,0.0350565,-0.00854606,0.022434
1621.867,-0.22371,0.0630597,0.0351811,-0.00888928,0.0236442
1623.796,-0.224363,0.0629733,0.0352901,-0.00923602,0.0248053
1625.724,-0.225022,0.0628766,0.0353992,-0.00958888,0.0259098
1627.653,-0.225684,0.062773,0.0355205,-0.00996234,0.0269836
1629.581,-0.226348,0.0626632,0.0356535,-0.0103476,0.0280213
1631.51,-0.227011,0.0625484,0.035809,-0.0107522,0.0289924
1633.438,-0.227666,0.0624353,0.0359967,-0.0111702,0.0299496
1635.367,-0.228323,0.0623247,0.0361814,-0.0115677,0.0309478
1637.295,-0.228974,0.0622159,0.0364088,-0.0119704,0.031952
1639.224,-0.229621,0.0621059,0.0366777,-0.0123893,0.0330065
1641.152,-0.230255,0.0619996,0.0370023,-0.0128285,0.0341014
1643.081,-0.230879,0.0618936,0.0373739,-0.0132713,0.0352423
1645.009,-0.231494,0.0617913,0.037797,-0.0137272,0.0364626
1646.938,-0.232101,0.0616921,0.0382569,-0.0141773,0.0377271
1648.866,-0.232695,0.0615928,0.038764,-0.0146353,0.0390164
1650.795,-0.233277,0.0614868,0.0393171,-0.0151191,0.0403573
1652.723,-0.233848,0.0613775,0.0398982,-0.0156127,0.0416986
1654.652,-0.23441,0.0612678,0.0404647,-0.0160842,0.0430426
1656.58,-0.234953,0.0611631,0.0410469,-0.0165483,0.044407
1658.509,-0.235471,0.0610631,0.0416459,-0.0170054,0.0458
1660.437,-0.235968,0.0609637,0.0422516,-0.0174414,0.0472227
1662.366,-0.23644,0.0608653,0.0428775,-0.0178549,0.0486414
1664.294,-0.236889,0.0607612,0.0435393,-0.0182578,0.0500512
1666.223,-0.237312,0.0606543,0.0442227,-0.0186456,0.0514363
1668.151,-0.237711,0.0605471,0.0449128,-0.0189898,0.0527943
1670.08,-0.23809,0.0604371,0.0455983,-0.0192689,0.0541265
1672.008,-0.238451,0.0603309,0.0462664,-0.0194668,0.0554271
1673.937,-0.238795,0.0602224,0.0469221,-0.0195861,0.0566399
1675.865,-0.239123,0.0601035,0.0475619,-0.0196216,0.057711
1677.794,-0.239437,0.0599741,0.0481637,-0.0195623,0.0586109
1679.722,-0.239736,0.0598401,0.0487204,-0.0193922,0.0593129
1681.651,-0.240024,0.0597013,0.0492206,-0.0191064,0.0598582
1683.579,-0.240293,0.0595599,0.0496956,-0.0187332,0.0602589
1685.508,-0.240544,0.059412,0.0501436,-0.0182836,0.060507
1687.436,-0.240782,0.0592555,0.0505553,-0.0177684,0.0606368
1689.365,-0.24101,0.059091,0.050916,-0.0171802,0.0606082
1691.293,-0.241224,0.0589207,0.0512459,-0.0165336,0.0604165
1693.222,-0.241425,0.0587451,0.0515352,-0.0158338,0.0600978
1695.15,-0.241616,0.0585659,0.0517855,-0.0150731,0.0596302
1697.079,-0.2418,0.0583828,0.0519895,-0.0142436,0.0590509
1699.007,-0.241978,0.0581958,0.0521546,-0.013348,0.0583496
1700.936,-0.242148,0.0579926,0.0523098,-0.0124166,0.0574882
1702.864,-0.242311,0.0577743,0.0524573,-0.0114467,0.0564795
1704.793,-0.242468,0.0575436,0.0525774,-0.0104184,0.0553695
1706.721,-0.242619,0.0573043,0.052671,-0.00933386,0.0541815
1708.65,-0.242764,0.0570571,0.0527333,-0.00818586,0.0529036
1710.578,-0.242904,0.0568016,0.0527586,-0.00697739,0.0515442
1712.507,-0.243037,0.0565397,0.0527649,-0.00572567,0.0501402
1714.435,-0.243161,0.0562736,0.0527519,-0.0044431,0.0487108
1716.364,-0.243278,0.0560017,0.052727,-0.00314842,0.0472939
1718.292,-0.243386,0.0557236,0.0527159,-0.00186042,0.045889
1720.221,-0.243485,0.0554404,0.0526985,-0.000574063,0.0444907
1722.149,-0.243576,0.0551533,0.0526679,0.00070537,0.0431151
1724.078,-0.243661,0.0548618,0.0526275,0.00196838,0.0417804
1726.006,-0.243741,0.054565,0.0525899,0.00319877,0.0404685
1727.935,-0.24382,0.0542591,0.0525462,0.00439075,0.0391924
1729.863,-0.243895,0.0539508,0.0525074,0.00554585,0.0379511
1731.792,-0.243971,0.0536396,0.0524617,0.00666944,0.0367537
1733.72,-0.244049,0.053325,0.0524026,0.00775855,0.035591
1735.649,-0.244131,0.0530097,0.0523307,0.0088142,0.0344452
1737.577,-0.244217,0.0526955,0.0522408,0.00983855,0.0333237
1739.506,-0.244307,0.0523821,0.0521418,0.010819,0.0322513
1741.434,-0.2444,0.0520711,0.0520395,0.0117565,0.0312032
1743.363,-0.244499,0.051761,0.0519287,0.0126641,0.0301738
1745.291,-0.244605,0.0514546,0.051801,0.0135425,0.0291838
1747.22,-0.244722,0.051152,0.0516319,0.0144106,0.0282437
1749.148,-0.244852,0.0508533,0.0514227,0.0152729,0.0273453
1751.077,-0.244994,0.0505597,0.0511726,0.0161343,0.0264914
1753.005,-0.245152,0.0502692,0.0508897,0.016998,0.0256885
1754.934,-0.245326,0.0499829,0.0505899,0.0178647,0.0249422
1756.862,-0.245516,0.0497003,0.0502724,0.0187302,0.0242747
1758.791,-0.245727,0.0494216,0.0499256,0.0196088,0.0236499
1760.719,-0.245962,0.0491456,0.0495389,0.0205001,0.023054
1762.648,-0.246217,0.0488723,0.0491352,0.0213937,0.0225031
1764.576,-0.2465,0.0485974,0.0487227,0.0222931,0.0220435
1766.505,-0.246809,0.0483205,0.0483239,0.0231905,0.0216667
1768.433,-0.247146,0.0480413,0.0479109,0.024106,0.0213427
1770.362,-0.24751,0.047761,0.0474813,0.0250374,0.0210105
1772.29,-0.247901,0.0474785,0.047031,0.0259698,0.0206482
1774.219,-0.248324,0.0471928,0.0465537,0.0269049,0.0202578
1776.147,-0.248781,0.0469043,0.046044,0.0278391,0.0198471
1778.076,-0.249262,0.0466174,0.0455308,0.0287598,0.0193461
1780.004,-0.249774,0.0463287,0.0450075,0.0296673,0.0187971
1781.933,-0.250319,0.0460417,0.0444612,0.0305667,0.0182068
1783.861,-0.250897,0.0457565,0.0438693,0.031463,0.0175184
1785.79,-0.251507,0.045474,0.0432307,0.0323603,0.0167069
1787.718,-0.25215,0.0451924,0.042562,0.0332356,0.0158233
1789.647,-0.252826,0.0449059,0.0418847,0.0340829,0.0149209
1791.575,-0.253532,0.044617,0.0412133,0.0349056,0.0139895
1793.504,-0.254269,0.0443265,0.0405303,0.0357081,0.0130254
1795.432,-0.255034,0.0440353,0.0398243,0.0364935,0.0120092
1797.361,-0.255829,0.0437423,0.0390984,0.0372569,0.0109417
1799.289,-0.256648,0.0434496,0.0383652,0.0379893,0.00984638
1801.218,-0.25749,0.0431579,0.0376253,0.0386925,0.00874964
1803.146,-0.258354,0.0428686,0.0368819,0.0393674,0.00767605
1805.075,-0.25924,0.0425803,0.0361355,0.04001,0.0066454
1807.003,-0.260148,0.0422946,0.0353901,0.0406305,0.0056359
1808.932,-0.261079,0.0420128,0.03464,0.0412355,0.00462674
1810.86,-0.262031,0.0417365,0.0338908,0.0418062,0.00366918
1812.789,-0.263007,0.0414639,0.0331481,0.0423377,0.00282034
1814.717,-0.264003,0.0411977,0.0324273,0.0428328,0.00206906
1816.646,-0.265014,0.0409363,0.0317478,0.0432756,0.00140851
1818.574,-0.266043,0.0406764,0.0310984,0.0436704,0.000847682
1820.503,-0.267087,0.0404186,0.0304863,0.0440136,0.000360983
1822.431,-0.268149,0.04016,0.0299047,0.0443075,-2.70074e-05
1824.36,-0.269227,0.0399028,0.0293528,0.0445565,-0.000295856
1826.288,-0.270318,0.0396471,0.0288257,0.0447652,-0.000477227
1828.217,-0.271421,0.0393931,0.028305,0.0449378,-0.000576443
1830.145,-0.27254,0.0391402,0.0277827,0.0450874,-0.000599769
1832.074,-0.273672,0.0388907,0.0272522,0.045219,-0.000580842
1834.002,-0.274817,0.0386482,0.0267176,0.0453277,-0.000516122
1835.931,-0.275974,0.0384151,0.0261748,0.045426,-0.000431101
1837.859,-0.277143,0.0381917,0.0256236,0.0455124,-0.000327779
1839.788,-0.278324,0.0379757,0.0250656,0.0455992,-0.000237136
1841.716,-0.279514,0.0377695,0.0245113,0.0456929,-0.000191951
1843.645,-0.280715,0.0375705,0.0239487,0.0458005,-0.000167789
1845.573,-0.281928,0.0373789,0.023363,0.0459223,-0.000144235
1847.502,-0.283152,0.0371934,0.0227494,0.0460669,-0.000139619
1849.43,-0.284388,0.0370117,0.0221179,0.0462439,-0.000183459
1851.359,-0.285635,0.0368327,0.0214812,0.0464338,-0.000243295
1853.287,-0.286898,0.0366526,0.0208226,0.0466503,-0.000320107
1855.216,-0.288175,0.0364715,0.0201337,0.0469015,-0.000455424
1857.144,-0.289468,0.0362882,0.0194089,0.0471843,-0.000642999
1859.073,-0.290772,0.0361057,0.0186483,0.0474923,-0.000891489
1861.001,-0.292088,0.0359235,0.0178568,0.0478165,-0.0011829
1862.93,-0.29342,0.0357379,0.0170184,0.0481688,-0.00150643
1864.858,-0.294762,0.035548,0.0161563,0.0485424,-0.00189386
1866.786,-0.296116,0.035353,0.0152787,0.0489262,-0.00230919
1868.715,-0.297482,0.0351527,0.0143757,0.0493252,-0.00273398
1870.644,-0.29886,0.0349489,0.0134378,0.0497482,-0.0031874
1872.572,-0.300249,0.0347395,0.0124653,0.0501882,-0.00366954
1874.5,-0.30165,0.0345228,0.0114712,0.0506401,-0.00418173
1876.429,-0.303063,0.0342976,0.0104695,0.0510955,-0.00468831
1878.358,-0.30449,0.0340647,0.00946973,0.0515476,-0.00515653
1880.286,-0.305933,0.0338227,0.00845872,0.0520088,-0.00561844
1882.215,-0.307388,0.0335749,0.00743319,0.0524883,-0.00612024
1884.143,-0.308857,0.0333212,0.00638711,0.0529907,-0.00662705
1886.072,-0.310343,0.0330613,0.00531751,0.0535146,-0.00713274
1888.0,-0.311843,0.0327952,0.00423878,0.0540432,-0.00762314
1889.929,-0.313355,0.0325242,0.00314952,0.0545778,-0.00806991
1891.857,-0.314878,0.03225,0.0020653,0.0551182,-0.00849015
1893.786,-0.316413,0.031971,0.000991084,0.0556558,-0.00886092
1895.714,-0.317957,0.0316901,-6.31109e-05,0.0561811,-0.00918192
1897.643,-0.319514,0.0314066,-0.00110996,0.0567037,-0.00947646
1899.571,-0.32108,0.0311229,-0.00213984,0.0572242,-0.00974896
1901.5,-0.322659,0.0308375,-0.00315275,0.0577307,-0.00995622
1903.428,-0.324247,0.0305545,-0.004138,0.0582193,-0.010111
1905.357,-0.325844,0.0302742,-0.00509739,0.0587018,-0.0102196
1907.285,-0.327451,0.0299969,-0.00602389,0.0591732,-0.0103017
1909.214,-0.329069,0.0297204,-0.00694147,0.0596443,-0.0103367
1911.142,-0.330696,0.0294466,-0.00783875,0.0601143,-0.0103528
1913.071,-0.332329,0.0291752,-0.00871093,0.0605728,-0.0103372
1914.999,-0.333971,0.0289051,-0.00955912,0.0610047,-0.0102484
1916.927,-0.335616,0.0286392,-0.0103764,0.0614021,-0.0100927
1918.856,-0.337264,0.0283772,-0.0111549,0.061756,-0.009846
1920.785,-0.33892,0.0281196,-0.0118956,0.0620679,-0.00949719
1922.713,-0.340582,0.0278676,-0.0126003,0.0623305,-0.00905919
1924.641,-0.34225,0.027622,-0.0132726,0.0625477,-0.00855153
1926.57,-0.343924,0.027382,-0.013916,0.0627147,-0.00795379
1928.499,-0.345604,0.0271499,-0.0145205,0.062817,-0.00725963
1930.427,-0.347285,0.0269285,-0.0150805,0.0628492,-0.00647608
1932.355,-0.348978,0.0267129,-0.0156247,0.0628306,-0.00560957
1934.284,-0.350677,0.0265033,-0.0161518,0.0627583,-0.00470004
1936.213,-0.352384,0.0263003,-0.0166781,0.0626537,-0.00377176
1938.141,-0.3541,0.0261032,-0.017208,0.0625135,-0.00282691
1940.069,-0.355826,0.0259122,-0.0177447,0.0623491,-0.00186066
1941.998,-0.357557,0.0257291,-0.0182779,0.0621529,-0.000871763
1943.927,-0.359298,0.0255518,-0.0188143,0.0619381,0.000131448
1945.855,-0.361048,0.0253767,-0.0193559,0.0617175,0.00113233
1947.783,-0.362806,0.0252056,-0.019903,0.0614973,0.00210567
1949.712,-0.364574,0.0250342,-0.0204661,0.0612869,0.00303934
1951.641,-0.366352,0.0248622,-0.021048,0.0610874,0.00394463
1953.569,-0.368136,0.0246925,-0.0216498,0.0609013,0.00482058
1955.497,-0.369928,0.024524,-0.0222767,0.060736,0.0056657
1957.426,-0.371727,0.024358,-0.0229262,0.0605894,0.00647469
1959.354,-0.373533,0.0241923,-0.0236044,0.060464,0.00723107
1961.283,-0.375347,0.0240255,-0.0243063,0.0603581,0.0079288
1963.211,-0.377165,0.0238604,-0.0250177,0.0602599,0.00858583
1965.14,-0.378985,0.0236986,-0.0257263,0.0601547,0.00921186
1967.068,-0.380807,0.0235401,-0.0264322,0.060051,0.00980979
1968.997,-0.38263,0.0233858,-0.0271305,0.0599498,0.0103683
1970.925,-0.384453,0.0232342,-0.0278231,0.059849,0.0109058
1972.854,-0.386277,0.0230848,-0.0284984,0.0597412,0.0114431
1974.782,-0.388101,0.0229363,-0.0291576,0.0596259,0.0119849
1976.711,-0.389922,0.0227899,-0.0297894,0.0594944,0.0125022
1978.639,-0.391739,0.0226464,-0.0304034,0.0593545,0.012992
1980.568,-0.393549,0.0225091,-0.0310097,0.0592125,0.0134634
1982.496,-0.395353,0.0223781,-0.0316127,0.0590577,0.0139343
1984.425,-0.397146,0.0222525,-0.0322058,0.0588848,0.014405
1986.354,-0.398925,0.0221319,-0.0327804,0.0586866,0.0148721
1988.282,-0.400689,0.0220145,-0.0333389,0.0584577,0.01536
1990.21,-0.402434,0.021904,-0.033874,0.0581904,0.0158785
1992.139,-0.404157,0.0218,-0.0343871,0.0578904,0.016413
1994.068,-0.405861,0.0216996,-0.0348838,0.0575534,0.0169876
1995.996,-0.407543,0.0216051,-0.0353548,0.057177,0.0176162
1997.924,-0.409204,0.0215149,-0.0358051,0.0567667,0.0183053
1999.853,-0.410838,0.0214311,-0.0362185,0.0563145,0.0190426
2001.781,-0.412449,0.0213524,-0.0365936,0.0558245,0.019828
2003.71,-0.414036,0.0212784,-0.0369307,0.0552958,0.0206482
2005.638,-0.415597,0.0212102,-0.037239,0.054736,0.021503
2007.567,-0.417134,0.0211474,-0.0375284,0.0541537,0.0223943
2009.495,-0.418646,0.0210884,-0.0377914,0.0535417,0.0233184
2011.424,-0.420134,0.0210294,-0.0380196,0.0528956,0.0242937
2013.352,-0.421596,0.020971,-0.0382068,0.05222,0.0253027
2015.281,-0.423033,0.0209129,-0.0383596,0.0515159,0.0263403
2017.209,-0.424443,0.0208551,-0.0384905,0.0507934,0.0273968
2019.138,-0.425828,0.0207968,-0.0385988,0.0500562,0.0284458
2021.066,-0.427186,0.0207369,-0.0386803,0.0492965,0.0294906
2022.995,-0.428519,0.0206758,-0.0387435,0.048529,0.0305338
2024.923,-0.429824,0.0206158,-0.038792,0.0477674,0.0315729
2026.852,-0.431104,0.020556,-0.03883,0.0470204,0.0325992
2028.78,-0.432355,0.0204968,-0.0388543,0.0462905,0.0335836
2030.709,-0.433585,0.0204354,-0.0388906,0.0456,0.0345243
2032.637,-0.434786,0.0203751,-0.0389344,0.0449479,0.0354067
2034.566,-0.435963,0.0203134,-0.038991,0.0443377,0.0362392
2036.494,-0.437116,0.0202489,-0.0390536,0.0437692,0.0370203
2038.423,-0.438243,0.020181,-0.0391097,0.0432391,0.0377514
2040.351,-0.439349,0.0201079,-0.0391725,0.042767,0.0384177
2042.28,-0.440429,0.0200324,-0.0392417,0.0423516,0.0389916
2044.208,-0.441489,0.0199505,-0.0393389,0.0420002,0.0394782
2046.137,-0.442527,0.0198623,-0.0394523,0.041707,0.0398659
2048.065,-0.443544,0.0197662,-0.0395846,0.041472,0.0401735
2049.994,-0.444541,0.0196632,-0.0397302,0.0412916,0.0404197
2051.922,-0.445518,0.0195526,-0.0398889,0.0411636,0.0406168
2053.851,-0.446476,0.0194333,-0.0400643,0.0410866,0.0407457
2055.779,-0.447417,0.0193041,-0.0402646,0.0410565,0.0408091
2057.708,-0.44834,0.0191664,-0.0404852,0.0410722,0.0408027
2059.636,-0.449246,0.0190201,-0.0407257,0.0411217,0.0407492
2061.565,-0.450133,0.0188661,-0.0409797,0.0411995,0.0406443
2063.493,-0.451004,0.0187034,-0.0412598,0.0413105,0.0405034
2065.422,-0.451857,0.018535,-0.0415529,0.0414477,0.0403209
2067.35,-0.452693,0.0183595,-0.041863,0.0416084,0.0400853
2069.279,-0.453512,0.0181789,-0.0421892,0.0417854,0.039802
2071.207,-0.454316,0.0179926,-0.0425317,0.0419683,0.0395055
2073.136,-0.455105,0.0178019,-0.0428773,0.0421463,0.0392065
2075.064,-0.455875,0.0176109,-0.0432121,0.0423082,0.0389153
2076.993,-0.456628,0.01742,-0.0435329,0.0424571,0.0386273
2078.921,-0.457364,0.0172301,-0.0438372,0.0425844,0.0383377
2080.85,-0.458087,0.0170413,-0.0441342,0.0426988,0.0380529
2082.778,-0.458796,0.0168551,-0.0444166,0.042787,0.0377937
2084.707,-0.459488,0.0166719,-0.0446666,0.042844,0.0375445
2086.635,-0.460167,0.0164894,-0.0448884,0.0428775,0.0372963
2088.564,-0.460831,0.0163101,-0.045081,0.0428871,0.0370561
2090.492,-0.46148,0.016135,-0.0452488,0.0428761,0.0368433
2092.421,-0.462114,0.0159633,-0.045392,0.0428444,0.0366504
2094.349,-0.462736,0.0157939,-0.0455164,0.0427973,0.0364746
2096.278,-0.463344,0.0156272,-0.0456187,0.0427236,0.0363298
2098.206,-0.463935,0.0154647,-0.0456831,0.0426159,0.0362112
2100.135,-0.464515,0.0153037,-0.0457219,0.0424776,0.0361494
2102.063,-0.465083,0.0151462,-0.0457364,0.0423179,0.0361347
2103.992,-0.465641,0.0149912,-0.0457345,0.0421439,0.0361496
2105.92,-0.466187,0.0148413,-0.045715,0.0419571,0.036183
2107.849,-0.466723,0.0146956,-0.0456838,0.0417646,0.0362517
2109.777,-0.46725,0.0145532,-0.0456299,0.0415669,0.0363515
2111.706,-0.46777,0.0144111,-0.0455486,0.0413669,0.0364727
2113.634,-0.468285,0.0142687,-0.0454513,0.0411771,0.0366061
2115.563,-0.468793,0.0141278,-0.0453368,0.0410025,0.0367476
2117.491,-0.469298,0.0139874,-0.0452113,0.040846,0.0369098
2119.42,-0.4698,0.0138455,-0.0450807,0.0407095,0.0370724
2121.348,-0.4703,0.0137025,-0.044948,0.0405928,0.0372185
2123.277,-0.4708,0.0135576,-0.044814,0.0404864,0.0373751
2125.205,-0.471297,0.013411,-0.0446748,0.040385,0.0375377
2127.134,-0.471794,0.0132618,-0.0445451,0.0402949,0.0376946
2129.062,-0.472289,0.0131125,-0.0444354,0.0402291,0.0378146
2130.991,-0.472785,0.0129629,-0.0443609,0.0401929,0.0378912
2132.919,-0.473278,0.0128152,-0.0443256,0.0401913,0.0379186
2134.848,-0.473771,0.0126683,-0.044332,0.040222,0.0379029
2136.776,-0.474263,0.012521,-0.0443733,0.0402799,0.0378427
2138.705,-0.474754,0.012373,-0.0444382,0.0403578,0.0377259
2140.633,-0.475244,0.0122245,-0.044534,0.040463,0.0375364
2142.562,-0.475736,0.0120737,-0.0446636,0.0405973,0.0372758
2144.49,-0.476226,0.0119216,-0.0448115,0.0407451,0.0369402
2146.419,-0.476717,0.0117666,-0.0449848,0.0409128,0.0365189
2148.347,-0.477207,0.0116085,-0.0451758,0.0410906,0.0360177
2150.276,-0.477695,0.0114472,-0.0453686,0.041269,0.0354374
2152.204,-0.478181,0.0112816,-0.0455692,0.0414426,0.0347877
2154.133,-0.478662,0.0111157,-0.0457727,0.0416146,0.0340561
2156.061,-0.479138,0.0109498,-0.0459863,0.0417912,0.0332467
2157.99,-0.479608,0.0107849,-0.0462092,0.0419725,0.0323691
2159.918,-0.480073,0.0106218,-0.0464392,0.0421603,0.0314291
2161.847,-0.480532,0.010461,-0.0466724,0.0423507,0.0304281
2163.775,-0.480983,0.0103037,-0.0469018,0.0425342,0.0293848
2165.704,-0.481426,0.0101492,-0.0471265,0.0427115,0.0283059
2167.632,-0.481863,0.00999711,-0.0473466,0.0428835,0.0272018
2169.561,-0.482293,0.00984769,-0.047552,0.0430419,0.0260839
2171.489,-0.482713,0.00970292,-0.0477325,0.0431817,0.0249625
2173.418,-0.483126,0.00956031,-0.047896,0.0433001,0.023864
2175.346,-0.483531,0.00941854,-0.0480313,0.0433886,0.0227902
2177.275,-0.483928,0.00927841,-0.0481295,0.0434436,0.0217468
2179.203,-0.48432,0.00913945,-0.0481939,0.043465,0.0207557
2181.132,-0.484704,0.009002,-0.0482248,0.043457,0.0198352
2183.06,-0.485082,0.00886568,-0.0482368,0.0434301,0.0189967
2184.989,-0.485452,0.00873386,-0.048213,0.0433795,0.0182238
2186.917,-0.485817,0.00860446,-0.0481633,0.0433177,0.0175092
2188.846,-0.486175,0.0084782,-0.0480938,0.0432412,0.01687
2190.774,-0.486528,0.00835523,-0.0480059,0.043152,0.0163248
2192.703,-0.486877,0.00823372,-0.0478977,0.0430529,0.0158538
2194.631,-0.487223,0.00811239,-0.0477695,0.042951,0.0154615
2196.56,-0.487564,0.007994,-0.047614,0.0428396,0.0151739
2198.488,-0.487896,0.00788193,-0.0474376,0.0427223,0.0149871
2200.417,-0.488223,0.00777108,-0.0472584,0.0426058,0.0148768
2202.345,-0.488545,0.00765913,-0.0470669,0.0424824,0.0148132
2204.274,-0.488864,0.00754369,-0.0468624,0.0423567,0.0147764
2206.202,-0.48918,0.00742443,-0.0466386,0.0422184,0.0147948
2208.131,-0.489489,0.00730642,-0.0463968,0.0420729,0.0148565
2210.059,-0.48979,0.00719155,-0.0461406,0.0419213,0.0149454
2211.988,-0.490083,0.00707578,-0.0458671,0.0417624,0.0150816
2213.916,-0.490366,0.00695873,-0.0455681,0.0415918,0.0152503
2215.845,-0.490643,0.00683719,-0.0452583,0.0414158,0.0154411
2217.773,-0.490917,0.00671066,-0.0449398,0.0412433,0.0155969
2219.702,-0.491187,0.00658154,-0.0446224,0.0410757,0.015698
2221.63,-0.491452,0.00645619,-0.0443106,0.0409089,0.015764
2223.559,-0.491718,0.00633165,-0.0440125,0.0407447,0.0157909
2225.487,-0.491982,0.00620851,-0.0437361,0.0405859,0.0157337
2227.416,-0.492251,0.00608598,-0.0434837,0.0404166,0.015603
2229.344,-0.49252,0.00596879,-0.0432408,0.0402197,0.0154135
2231.273,-0.492786,0.0058594,-0.0430013,0.0399915,0.0151672
2233.201,-0.493046,0.00576005,-0.0427542,0.0397368,0.0148776
2235.13,-0.4933,0.00566878,-0.0425004,0.0394753,0.0145323
2237.058,-0.493542,0.00558091,-0.0422176,0.0391941,0.0141522
2238.987,-0.493771,0.00549019,-0.0418992,0.0388939,0.0137887
2240.915,-0.493982,0.00539656,-0.0415347,0.0385769,0.0134014
2242.844,-0.494182,0.00529527,-0.0411452,0.0382591,0.0129574
2244.772,-0.494372,0.00518622,-0.0407476,0.0379554,0.0124641
2246.701,-0.494551,0.00507263,-0.0403454,0.0376681,0.0119139
2248.629,-0.494727,0.00495154,-0.0399611,0.037404,0.0113052
2250.558,-0.494903,0.00482055,-0.0395955,0.0371577,0.0106226
2252.486,-0.495083,0.00468395,-0.0392573,0.0369322,0.00985002
2254.415,-0.495267,0.00454955,-0.0389531,0.0367192,0.00900556
2256.343,-0.495455,0.00442196,-0.0386944,0.0365199,0.0081008
2258.272,-0.495653,0.00430112,-0.0384881,0.0363468,0.00712637
2260.2,-0.49586,0.00418703,-0.0383252,0.0361965,0.00608292
2262.129,-0.496078,0.00407918,-0.0382014,0.0360672,0.00500132
2264.057,-0.496304,0.00398126,-0.0381067,0.035951,0.00389899
2265.986,-0.496536,0.00389621,-0.0380355,0.0358454,0.00278156
2267.914,-0.496776,0.0038221,-0.0380031,0.0357715,0.00165345
2269.843,-0.497022,0.00375999,-0.037999,0.0357221,0.000503054
2271.771,-0.497275,0.00370821,-0.0380242,0.0357021,-0.000651193
2273.7,-0.497533,0.00366785,-0.0380784,0.0357155,-0.00180481
2275.628,-0.497784,0.00363887,-0.0381245,0.0356997,-0.00292846
2277.557,-0.498035,0.0036154,-0.0381825,0.0356928,-0.00407075
2279.485,-0.498287,0.00359734,-0.0382519,0.0356944,-0.00523034
2281.414,-0.498541,0.00358461,-0.0383318,0.0357039,-0.00640583
2283.342,-0.498795,0.00357708,-0.0384215,0.0357209,-0.0075957
2285.271,-0.49905,0.00357463,-0.0385203,0.0357447,-0.00879837
2287.199,-0.499305,0.00357712,-0.0386272,0.0357747,-0.0100122
2289.128,-0.499561,0.0035844,-0.0387414,0.0358102,-0.0112354
2291.056,-0.499817,0.00359628,-0.0388618,0.0358505,-0.0124662
2292.985,-0.500073,0.0036126,-0.0389874,0.0358949,-0.0137026
2294.913,-0.500328,0.00363315,-0.0391172,0.0359423,-0.0149427
2296.842,-0.500583,0.00365772,-0.03925,0.0359921,-0.0161844
2298.77,-0.500836,0.00368608,-0.0393845,0.0360431,-0.0174256
2300.699,-0.501089,0.003718,-0.0395196,0.0360945,-0.018664
2302.627,-0.50134,0.00375322,-0.039654,0.0361452,-0.0198973
2304.556,-0.501589,0.00379148,-0.0397861,0.0361941,-0.021123
2306.484,-0.501836,0.00383248,-0.0399147,0.03624,-0.0223388
2308.413,-0.50208,0.00387594,-0.0400383,0.0362818,-0.0235421
2310.341,-0.502321,0.00392155,-0.0401553,0.0363182,-0.0247301
2312.27,-0.502559,0.00396897,-0.0402641,0.036348,-0.0259003
2314.198,-0.502794,0.00401788,-0.040363,0.0363698,-0.0270498
2316.127,-0.503023,0.00406793,-0.0404505,0.0363821,-0.0281756
2318.055,-0.503249,0.00411873,-0.0405246,0.0363836,-0.0292749
2319.984,-0.503469,0.00416992,-0.0405837,0.0363728,-0.0303446
2321.912,-0.503683,0.0042211,-0.0406257,0.036348,-0.0313816
2323.841,-0.503891,0.00427187,-0.0406489,0.0363078,-0.0323825
2325.769,-0.504093,0.00432179,-0.0406512,0.0362504,-0.0333443
2327.698,-0.504288,0.00437044,-0.0406305,0.0361742,-0.0342634
2329.626,-0.504474,0.00441735,-0.0405848,0.0360775,-0.0351364
2331.555,-0.504653,0.00446208,-0.040512,0.0359583,-0.0359598
2333.483,-0.504822,0.00450414,-0.0404097,0.035815,-0.0367299
2335.412,-0.504982,0.00454303,-0.0402759,0.0356455,-0.0374431
2337.34,-0.505132,0.00457825,-0.040108,0.0354479,-0.0380956
2339.269,-0.505271,0.00460928,-0.0399039,0.0352203,-0.0386835
2341.197,-0.505399,0.00463559,-0.0396609,0.0349605,-0.0392028
2343.126,-0.505515,0.00465662,-0.0393767,0.0346666,-0.0396496
2345.054,-0.505618,0.00467182,-0.0390487,0.0343362,-0.0400197
2346.983,-0.505707,0.0046806,-0.0386743,0.0339673,-0.0403089
2348.911,-0.505782,0.00468238,-0.0382508,0.0335576,-0.040513
2350.84,-0.505843,0.00467654,-0.0377756,0.0331047,-0.0406276
2352.768,-0.505887,0.00466248,-0.0372459,0.0326064,-0.0406482
2354.697,-0.505916,0.00463955,-0.0366588,0.0320602,-0.0405704
2356.625,-0.505927,0.00460712,-0.0360115,0.0314636,-0.0403896
2358.554,-0.50592,0.00456451,-0.035301,0.0308142,-0.040101
2360.482,-0.505894,0.00451106,-0.0345244,0.0301094,-0.0396999
2362.411,-0.505848,0.00444607,-0.0336785,0.0293466,-0.0391815
2364.339,-0.505782,0.00436885,-0.0327604,0.0285232,-0.0385409
2366.268,-0.505694,0.00427866,-0.0317668,0.0276363,-0.0377729
2368.196,-0.505584,0.00417479,-0.0306946,0.0266834,-0.0368726
2370.125,-0.505451,0.00405649,-0.0295404,0.0256616,-0.0358348
2372.053,-0.505294,0.00392299,-0.0283009,0.0245679,-0.0346543
2373.982,-0.505112,0.00377353,-0.0269728,0.0233996,-0.0333256
2375.91,-0.504903,0.00360731,-0.0255526,0.0221536,-0.0318433
2377.839,-0.504668,0.00342354,-0.0240368,0.020827,-0.0302021
2379.767,-0.504404,0.0032214,-0.0224219,0.0194167,-0.0283963
2381.696,-0.504112,0.00300005,-0.0207042,0.0179195,-0.0264202
2383.624,-0.50379,0.00275866,-0.0188802,0.0163324,-0.0242681
2385.553,-0.503436,0.00249637,-0.0169461,0.014652,-0.0219342
2387.481,-0.50305,0.0022123,-0.014898,0.0128753,-0.0194126
2389.41,-0.502631,0.00190557,-0.0127323,0.0109987,-0.0166973
2391.338,-0.502178,0.00157527,-0.010445,0.00901902,-0.0137822
2393.267,-0.50169,0.00122051,-0.00803208,0.00693279,-0.0106612
2395.195,-0.501164,0.000840335,-0.00548968,0.00473656,-0.00732808
2397.124,-0.500602,0.000433819,-0.00281369,0.00242682,-0.00377647
2399.052,-0.5,3.16124e-17,1.85994e-18,-1.02495e-16,-4.67212e-17