File: Glass FTIR Baseline Share With Sarah 2023/Water_Peak_1635.csv
Wavenumber,Average_1630_Peak,1630_Peak_PCA_1,1630_Peak_PCA_2,1630_Peak_PCA_3
1276.666,0.0,0.0,0.0,0.0
1278.594,0.0,0.0,0.0,0.0
1280.523,0.0,0.0,0.0,0.0
1282.452,0.0,0.0,0.0,0.0
1284.38,0.0,0.0,0.0,0.0
1286.308,0.0,0.0,0.0,0.0
1288.237,0.0,0.0,0.0,0.0
1290.166,0.0,0.0,0.0,0.0
1292.094,0.0,0.0,0.0,0.0
1294.022,0.0,0.0,0.0,0.0
1295.951,0.0,0.0,0.0,0.0
1297.88,0.0,0.0,0.0,0.0
1299.808,0.0,0.0,0.0,0.0
1301.736,0.0,0.0,0.0,0.0
1303.665,0.0,0.0,0.0,0.0
1305.594,0.0,0.0,0.0,0.0
1307.522,0.0,0.0,0.0,0.0
1309.45,0.0,0.0,0.0,0.0
1311.379,0.0,0.0,0.0,0.0
1313.307,0.0,0.0,0.0,0.0
1315.236,0.0,0.0,0.0,0.0
1317.164,0.0,0.0,0.0,0.0
1319.093,0.0,0.0,0.0,0.0
1321.021,0.0,0.0,0.0,0.0
1322.95,0.0,0.0,0.0,0.0
1324.878,0.0,0.0,0.0,0.0
1326.807,0.0,0.0,0.0,0.0
1328.735,0.0,0.0,0.0,0.0
1330.664,0.0,0.0,0.0,0.0
1332.592,0.0,0.0,0.0,0.0
1334.521,0.0,0.0,0.0,0.0
1336.449,0.0,0.0,0.0,0.0
1338.378,0.0,0.0,0.0,0.0
1340.307,0.0,0.0,0.0,0.0
1342.235,0.0,0.0,0.0,0.0
1344.163,0.0,0.0,0.0,0.0
1346.092,0.0,0.0,0.0,0.0
1348.021,0.0,0.0,0.0,0.0
1349.949,0.0,0.0,0.0,0.0
1351.877,0.0,0.0,0.0,0.0
1353.806,0.0,0.0,0.0,0.0
1355.734,0.0,0.0,0.0,0.0
1357.663,0.0,0.0,0.0,0.0
1359.591,0.0,0.0,0.0,0.0
1361.52,0.0,0.0,0.0,0.0
1363.448,0.0,0.0,0.0,0.0
1365.377,0.0,0.0,0.0,0.0
1367.305,0.0,0.0,0.0,0.0
1369.234,0.0,0.0,0.0,0.0
1371.162,0.0,0.0,0.0,0.0
1373.091,0.0,0.0,0.0,0.0
1375.019,0.0,0.0,0.0,0.0
1376.948,0.0,0.0,0.0,0.0
1378.876,0.0,0.0,0.0,0.0
1380.805,0.0,0.0,0.0,0.0
1382.733,0.0,0.0,0.0,0.0
1384.662,0.0,0.0,0.0,0.0
1386.59,0.0,0.0,0.0,0.0
1388.519,0.0,0.0,0.0,0.0
1390.447,0.0,0.0,0.0,0.0
1392.376,0.0,0.0,0.0,0.0
1394.304,0.0,0.0,0.0,0.0
1396.233,0.0,0.0,0.0,0.0
1398.161,0.0,0.0,0.0,0.0
1400.09,0.0,0.0,0.0,0.0
1402.018,0.0,0.0,0.0,0.0
1403.947,0.0,0.0,0.0,0.0
1405.875,0.0,0.0,0.0,0.0
1407.804,0.0,0.0,0.0,0.0
1409.732,0.0,0.0,0.0,0.0
1411.661,0.0,0.0,0.0,0.0
1413.589,0.0,0.0,0.0,0.0
1415.518,0.0,0.0,0.0,0.0
1417.446,0.0,0.0,0.0,0.0
1419.375,0.0,0.0,0.0,0.0
1421.303,0.0,0.0,0.0,0.0
1423.232,0.0,0.0,0.0,0.0
1425.16,0.0,0.0,0.0,0.0
1427.089,0.0,0.0,0.0,0.0
1429.017,0.0,0.0,0.0,0.0
1430.946,0.0,0.0,0.0,0.0
1432.874,0.0,0.0,0.0,0.0
1434.803,0.0,0.0,0.0,0.0
1436.731,0.0,0.0,0.0,0.0
1438.66,0.0,0.0,0.0,0.0
1440.588,0.0,0.0,0.0,0.0
1442.517,0.0,0.0,0.0,0.0
1444.445,0.0,0.0,0.0,0.0
1446.374,0.0,0.0,0.0,0.0
1448.302,0.0,0.0,0.0,0.0
1450.231,0.0,0.0,0.0,0.0
1452.159,0.0327124,0.000929819,-0.00762326,0.0058966
1454.088,0.0315656,-0.000427709,-0.00830383,0.00754391
1456.016,0.0315192,-0.00205295,-0.00940721,0.00905467
1457.945,0.0328896,-0.0039112,-0.0107018,0.00965747
1459.873,0.0333349,-0.00599391,-0.0123592,0.00972285
1461.802,0.0322542,-0.00831306,-0.0145604,0.00978601
1463.73,0.0317144,-0.0108151,-0.0174319,0.00997439
1465.659,0.0315337,-0.013401,-0.0206293,0.00954957
1467.587,0.0313678,-0.0160426,-0.0240814,0.00868552
1469.516,0.031022,-0.0188162,-0.0280899,0.00841405
1471.444,0.0317362,-0.0216624,-0.0322463,0.00798891
1473.373,0.0323871,-0.024398,-0.035995,0.00583315
1475.301,0.0330335,-0.0269962,-0.0394603,0.00239554
1477.23,0.0338106,-0.0295292,-0.042835,-0.00168197
1479.158,0.0346691,-0.0319369,-0.0458899,-0.00674575
1481.087,0.0356656,-0.0342843,-0.0488235,-0.0121065
1483.015,0.0373055,-0.0365601,-0.0515502,-0.0177388
1484.944,0.0389452,-0.0387265,-0.0537107,-0.0243667
1486.872,0.04039,-0.0408352,-0.0556929,-0.0308494
1488.801,0.0414214,-0.0429388,-0.0575972,-0.0366638
1490.729,0.0428144,-0.0449545,-0.0592698,-0.0424834
1492.658,0.0444645,-0.0468716,-0.0607417,-0.0483851
1494.586,0.0450376,-0.0487705,-0.0622027,-0.0535935
1496.515,0.0451226,-0.0507007,-0.0638149,-0.0582295
1498.443,0.045439,-0.052684,-0.0656435,-0.0623911
1500.372,0.0420366,-0.0546977,-0.0676496,-0.0661987
1502.3,0.0422247,-0.056685,-0.0698935,-0.0695017
1504.229,0.0427274,-0.0586184,-0.0722129,-0.0724557
1506.157,0.0442955,-0.0603864,-0.0744869,-0.0750368
1508.086,0.0463091,-0.0621846,-0.0772023,-0.0759964
1510.014,0.0474854,-0.0639958,-0.0802312,-0.0753353
1511.943,0.0487887,-0.0656467,-0.082819,-0.0748384
1513.871,0.0503436,-0.0671288,-0.0849254,-0.0744174
1515.8,0.0524617,-0.0685043,-0.086745,-0.0734228
1517.728,0.0546352,-0.069735,-0.0880416,-0.0723369
1519.657,0.0569574,-0.0708409,-0.088811,-0.0711921
1521.585,0.0585171,-0.0718779,-0.0891902,-0.0696815
1523.514,0.0599564,-0.0729263,-0.0893205,-0.0678218
1525.442,0.0622435,-0.0739693,-0.0893155,-0.065614
1527.371,0.0648824,-0.0749796,-0.0890087,-0.0636618
1529.299,0.0664656,-0.0759494,-0.0883966,-0.0622791
1531.228,0.0677796,-0.0769237,-0.0876599,-0.0612324
1533.156,0.0692485,-0.077939,-0.0868003,-0.0605871
1535.085,0.0711802,-0.0790494,-0.0858976,-0.0601077
1537.013,0.0722766,-0.0802812,-0.0851559,-0.0593482
1538.942,0.0737989,-0.0816607,-0.0846151,-0.0581155
1540.87,0.0757185,-0.083136,-0.0843802,-0.0561821
1542.799,0.0781719,-0.084644,-0.0843688,-0.053653
1544.727,0.0818036,-0.0861532,-0.0844423,-0.0505631
1546.656,0.0841641,-0.0876803,-0.0848125,-0.0462565
1548.584,0.086144,-0.0891931,-0.085582,-0.0404975
1550.513,0.0886159,-0.0906255,-0.0864173,-0.033918
1552.441,0.0916661,-0.091921,-0.0872633,-0.0267187
1554.37,0.09484,-0.0930936,-0.0880851,-0.0192026
1556.298,0.0975777,-0.0941293,-0.0891028,-0.0109062
1558.227,0.100326,-0.0950434,-0.0901423,-0.00204335
1560.155,0.104253,-0.0958146,-0.0907197,0.00639526
1562.084,0.109563,-0.096432,-0.0905755,0.0137722
1564.012,0.11451,-0.0969562,-0.0901484,0.0208759
1565.941,0.119966,-0.0974299,-0.0895317,0.0279036
1567.869,0.125884,-0.0978043,-0.0885745,0.0344395
1569.798,0.131974,-0.0980537,-0.0870204,0.0398662
1571.726,0.138259,-0.0983254,-0.085135,0.0449111
1573.655,0.143557,-0.0987025,-0.0830046,0.049761
1575.583,0.149381,-0.0991397,-0.0806382,0.0540512
1577.512,0.156625,-0.099634,-0.0781087,0.0577203
1579.44,0.164738,-0.100241,-0.0756173,0.0612028
1581.369,0.173108,-0.101026,-0.0732944,0.0644134
1583.297,0.182143,-0.102004,-0.0711254,0.0671316
1585.226,0.192245,-0.103206,-0.0692001,0.0694582
1587.154,0.203747,-0.104614,-0.0676441,0.0715673
1589.083,0.21664,-0.106081,-0.066365,0.0728691
1591.011,0.230816,-0.107516,-0.065809,0.0744176
1592.94,0.247041,-0.108826,-0.0660219,0.0766193
1594.868,0.264735,-0.109816,-0.0667608,0.0790356
1596.797,0.284531,-0.110322,-0.0678325,0.0815255
1598.725,0.307213,-0.11012,-0.069155,0.0840586
1600.654,0.333056,-0.109071,-0.0711576,0.08743
1602.582,0.361387,-0.10703,-0.0736984,0.0916453
1604.511,0.391311,-0.103814,-0.0762592,0.0956458
1606.439,0.425563,-0.0993275,-0.0784866,0.0986415
1608.368,0.463644,-0.0936785,-0.0802948,0.100552
1610.296,0.503538,-0.0869313,-0.0817151,0.101301
1612.225,0.546803,-0.079267,-0.0829908,0.101551
1614.153,0.592375,-0.0708896,-0.083912,0.10101
1616.082,0.63946,-0.0620044,-0.0841678,0.0989501
1618.01,0.688337,-0.0529461,-0.0836631,0.0955159
1619.939,0.737308,-0.0440708,-0.0821479,0.0902747
1621.867,0.784223,-0.035737,-0.0794333,0.0830772
1623.796,0.828697,-0.0282892,-0.0752942,0.0739798
1625.724,0.87,-0.0220201,-0.0695982,0.063056
1627.653,0.906587,-0.0171983,-0.0626615,0.0508349
1629.581,0.936599,-0.0140725,-0.0547705,0.0382156
1631.51,0.959943,-0.0128061,-0.0457901,0.0251679
1633.438,0.979293,-0.0134825,-0.0354152,0.0111446
1635.367,0.990913,-0.0161267,-0.023794,-0.003652
1637.295,0.993005,-0.0207099,-0.0114402,-0.01837
1639.224,0.990102,-0.02711,0.00141746,-0.0325714
1641.152,0.983116,-0.0350979,0.0146078,-0.0462324
1643.081,0.967505,-0.0444701,0.0278782,-0.0589924
1645.009,0.947095,-0.0549162,0.0410574,-0.0707586
1646.938,0.921706,-0.0660738,0.0538994,-0.0813683
1648.866,0.892534,-0.0775991,0.0663805,-0.0908002
1650.795,0.859415,-0.0890974,0.0783248,-0.09897
1652.723,0.824158,-0.100185,0.0891834,-0.105315
1654.652,0.788351,-0.11058,0.0989013,-0.109776
1656.58,0.75219,-0.119991,0.10734,-0.112274
1658.509,0.713829,-0.128167,0.114416,-0.112888
1660.437,0.675298,-0.134926,0.120173,-0.111861
1662.366,0.636624,-0.14015,0.124622,-0.109349
1664.294,0.597529,-0.143824,0.127699,-0.105287
1666.223,0.560385,-0.14596,0.129642,-0.100145
1668.151,0.525139,-0.146625,0.13044,-0.0940566
1670.08,0.488069,-0.145956,0.130242,-0.0873673
1672.008,0.454417,-0.144095,0.129214,-0.080214
1673.937,0.421303,-0.141208,0.127468,-0.0726983
1675.865,0.390371,-0.137586,0.125167,-0.064819
1677.794,0.361099,-0.133414,0.122533,-0.056955
1679.722,0.333034,-0.12881,0.119588,-0.0492472
1681.651,0.307552,-0.124014,0.116326,-0.0411728
1683.579,0.285613,-0.119141,0.112836,-0.0326593
1685.508,0.263858,-0.11423,0.109469,-0.0244353
1687.436,0.243612,-0.109439,0.106316,-0.0161506
1689.365,0.225204,-0.104868,0.103315,-0.00746578
1691.293,0.207783,-0.100555,0.100484,0.00157021
1693.222,0.191052,-0.096489,0.0979761,0.0106412
1695.15,0.176584,-0.0926939,0.0954774,0.0205161
1697.079,0.163977,-0.0891724,0.0930969,0.0310133
1699.007,0.152867,-0.0858675,0.0910461,0.0417686
1700.936,0.141041,-0.0827254,0.0893294,0.0526861
1702.864,0.130685,-0.0796922,0.0877834,0.0637434
1704.793,0.121789,-0.0768295,0.0858552,0.0761752
1706.721,0.113802,-0.0740875,0.0836589,0.0896922
1708.65,0.106687,-0.0713547,0.0815459,0.103016
1710.578,0.100793,-0.0686011,0.0796511,0.115534
1712.507,0.095051,-0.0658396,0.0778998,0.127223
1714.435,0.0901886,-0.0630476,0.0761384,0.138134
1716.364,0.0854811,-0.0602192,0.0742377,0.148217
1718.292,0.0818995,-0.0573261,0.0723563,0.156821
1720.221,0.0783435,-0.0543863,0.0703815,0.163932
1722.149,0.074451,-0.0514334,0.0682915,0.169419
1724.078,0.0710349,-0.0484651,0.0662512,0.172558
1726.006,0.0678185,-0.0455286,0.0642476,0.173383
1727.935,0.0646861,-0.0426341,0.0624761,0.171672
1729.863,0.0618329,-0.0397946,0.0609237,0.167576
1731.792,0.0586195,-0.0370228,0.059468,0.161476
1733.72,0.0563236,-0.034365,0.0581157,0.153623
1735.649,0.0541691,-0.0318969,0.0569003,0.144159
1737.577,0.0512048,-0.02966,0.0561669,0.13269
1739.506,0.0487922,-0.0276814,0.0557535,0.119917
1741.434,0.046638,-0.0259824,0.0553744,0.106647
1743.363,0.044343,-0.0245422,0.0552216,0.0927056
1745.291,0.0421564,-0.0233577,0.0552917,0.0782435
1747.22,0.039969,-0.0225144,0.0552771,0.0642147
1749.148,0.0376002,-0.0220127,0.0550598,0.0509717
1751.077,0.0354728,-0.021798,0.0547079,0.038584
1753.005,0.0335418,-0.0217922,0.0545282,0.02671
1754.934,0.0310716,-0.0218905,0.0544029,0.0155566
1756.862,0.029149,-0.0220724,0.0538809,0.00608796
1758.791,0.0273379,-0.0223149,0.0531062,-0.00179931
1760.719,0.0259755,-0.022537,0.0520408,-0.00817693
1762.648,0.0247644,-0.0226819,0.05076,-0.0131552
1764.576,0.0231775,-0.022724,0.049316,-0.0168091
1766.505,0.0216233,-0.022592,0.0475902,-0.0189351
1768.433,0.0204676,-0.0221438,0.0457159,-0.0205382
1770.362,0.0188867,-0.0215084,0.0436237,-0.0209218
1772.29,0.0176899,-0.0206757,0.0413239,-0.0201628
1774.219,0.0165807,-0.0196425,0.0388316,-0.0183583
1776.147,0.0149346,-0.0184115,0.0361664,-0.0156232
1778.076,0.0133169,-0.0169921,0.0333522,-0.0120877
1780.004,0.0119692,-0.0153997,0.0304166,-0.00789427
1781.933,0.0107111,-0.0136556,0.027391,-0.00319466
1783.861,0.00929728,-0.0117864,0.0243099,0.00185349
1785.79,0.00790507,-0.00982355,0.0212101,0.00709061
1787.718,0.00673913,-0.00780259,0.0181309,0.0123592
1789.647,0.00531842,-0.00576245,0.0151126,0.0175084
1791.575,0.00474955,-0.00374445,0.0121964,0.0223984
1793.504,0.00427503,-0.00179131,0.00942334,0.026906
1795.432,0.00345283,5.40255e-05,0.00683366,0.0309297
1797.361,0.00267736,0.00174965,0.00446571,0.0343952
1799.289,0.00219773,0.00325608,0.00235513,0.037262
1801.218,0.00192439,0.00453776,0.000533733,0.039529
1803.146,0.00178908,0.0055647,-0.000971493,0.0412419
1805.075,0.00140946,0.00631419,-0.00213961,0.0424997
1807.003,0.000822384,0.0067727,-0.00295693,0.0434621
1808.932,0.000435192,0.00693784,-0.00341828,0.044357
1810.86,0.000365821,0.00682044,-0.00352837,0.0454888
1812.789,0.00016123,0.0064468,-0.0033032,0.0472461
1814.717,-0.000223308,0.005861,-0.00277155,0.050111
1816.646,-0.000515645,0.00512737,-0.00197651,0.0546671
1818.574,-0.000693816,0.00433302,-0.000977063,0.0616093
1820.503,0.0,0.0,0.0,0.0
1822.431,0.0,0.0,0.0,0.0
1824.36,0.0,0.0,0.0,0.0
1826.288,0.0,0.0,0.0,0.0
1828.217,0.0,0.0,0.0,0.0
1830.145,0.0,0.0,0.0,0.0
1832.074,0.0,0.0,0.0,0.0
1834.002,0.0,0.0,0.0,0.0
1835.931,0.0,0.0,0.0,0.0
1837.859,0.0,0.0,0.0,0.0
1839.788,0.0,0.0,0.0,0.0
1841.716,0.0,0.0,0.0,0.0
1843.645,0.0,0.0,0.0,0.0
1845.573,0.0,0.0,0.0,0.0
1847.502,0.0,0.0,0.0,0.0
1849.43,0.0,0.0,0.0,0.0
1851.359,0.0,0.0,0.0,0.0
1853.287,0.0,0.0,0.0,0.0
1855.216,0.0,0.0,0.0,0.0
1857.144,0.0,0.0,0.0,0.0
1859.073,0.0,0.0,0.0,0.0
1861.001,0.0,0.0,0.0,0.0
1862.93,0.0,0.0,0.0,0.0
1864.858,0.0,0.0,0.0,0.0
1866.786,0.0,0.0,0.0,0.0
1868.715,0.0,0.0,0.0,0.0
1870.644,0.0,0.0,0.0,0.0
1872.572,0.0,0.0,0.0,0.0
1874.5,0.0,0.0,0.0,0.0
1876.429,0.0,0.0,0.0,0.0
1878.358,0.0,0.0,0.0,0.0
1880.286,0.0,0.0,0.0,0.0
1882.215,0.0,0.0,0.0,0.0
1884.143,0.0,0.0,0.0,0.0
1886.072,0.0,0.0,0.0,0.0
1888.0,0.0,0.0,0.0,0.0
1889.929,0.0,0.0,0.0,0.0
1891.857,0.0,0.0,0.0,0.0
1893.786,0.0,0.0,0.0,0.0
1895.714,0.0,0.0,0.0,0.0
1897.643,0.0,0.0,0.0,0.0
1899.571,0.0,0.0,0.0,0.0
1901.5,0.0,0.0,0.0,0.0
1903.428,0.0,0.0,0.0,0.0
1905.357,0.0,0.0,0.0,0.0
1907.285,0.0,0.0,0.0,0.0
1909.214,0.0,0.0,0.0,0.0
1911.142,0.0,0.0,0.0,0.0
1913.071,0.0,0.0,0.0,0.0
1914.999,0.0,0.0,0.0,0.0
1916.927,0.0,0.0,0.0,0.0
1918.856,0.0,0.0,0.0,0.0
1920.785,0.0,0.0,0.0,0.0
1922.713,0.0,0.0,0.0,0.0
1924.641,0.0,0.0,0.0,0.0
1926.57,0.0,0.0,0.0,0.0
1928.499,0.0,0.0,0.0,0.0
1930.427,0.0,0.0,0.0,0.0
1932.355,0.0,0.0,0.0,0.0
1934.284,0.0,0.0,0.0,0.0
1936.213,0.0,0.0,0.0,0.0
1938.141,0.0,0.0,0.0,0.0
1940.069,0.0,0.0,0.0,0.0
1941.998,0.0,0.0,0.0,0.0
1943.927,0.0,0.0,0.0,0.0
1945.855,0.0,0.0,0.0,0.0
1947.783,0.0,0.0,0.0,0.0
1949.712,0.0,0.0,0.0,0.0
1951.641,0.0,0.0,0.0,0.0
1953.569,0.0,0.0,0.0,0.0
1955.497,0.0,0.0,0.0,0.0
1957.426,0.0,0.0,0.0,0.0
1959.354,0.0,0.0,0.0,0.0
1961.283,0.0,0.0,0.0,0.0
1963.211,0.0,0.0,0.0,0.0
1965.14,0.0,0.0,0.0,0.0
1967.068,0.0,0.0,0.0,0.0
1968.997,0.0,0.0,0.0,0.0
1970.925,0.0,0.0,0.0,0.0
1972.854,0.0,0.0,0.0,0.0
1974.782,0.0,0.0,0.0,0.0
1976.711,0.0,0.0,0.0,0.0
1978.639,0.0,0.0,0.0,0.0
1980.568,0.0,0.0,0.0,0.0
1982.496,0.0,0.0,0.0,0.0
1984.425,0.0,0.0,0.0,0.0
1986.354,0.0,0.0,0.0,0.0
1988.282,0.0,0.0,0.0,0.0
1990.21,0.0,0.0,0.0,0.0
1992.139,0.0,0.0,0.0,0.0
1994.068,0.0,0.0,0.0,0.0
1995.996,0.0,0.0,0.0,0.0
1997.924,0.0,0.0,0.0,0.0
1999.853,0.0,0.0,0.0,0.0
2001.781,0.0,0.0,0.0,0.0
2003.71,0.0,0.0,0.0,0.0
2005.638,0.0,0.0,0.0,0.0
2007.567,0.0,0.0,0.0,0.0
2009.495,0.0,0.0,0.0,0.0
2011.424,0.0,0.0,0.0,0.0
2013.352,0.0,0.0,0.0,0.0
2015.281,0.0,0.0,0.0,0.0
2017.209,0.0,0.0,0.0,0.0
2019.138,0.0,0.0,0.0,0.0
2021.066,0.0,0.0,0.0,0.0
2022.995,0.0,0.0,0.0,0.0
2024.923,0.0,0.0,0.0,0.0
2026.852,0.0,0.0,0.0,0.0
2028.78,0.0,0.0,0.0,0.0
2030.709,0.0,0.0,0.0,0.0
2032.637,0.0,0.0,0.0,0.0
2034.566,0.0,0.0,0.0,0.0
2036.494,0.0,0.0,0.0,0.0
2038.423,0.0,0.0,0.0,0.0
2040.351,0.0,0.0,0.0,0.0
2042.28,0.0,0.0,0.0,0.0
2044.208,0.0,0.0,0.0,0.0
2046.137,0.0,0.0,0.0,0.0
2048.065,0.0,0.0,0.0,0.0
2049.994,0.0,0.0,0.0,0.0
2051.922,0.0,0.0,0.0,0.0
2053.851,0.0,0.0,0.0,0.0
2055.779,0.0,0.0,0.0,0.0
2057.708,0.0,0.0,0.0,0.0
2059.636,0.0,0.0,0.0,0.0
2061.565,0.0,0.0,0.0,0.0
2063.493,0.0,0.0,0.0,0.0
2065.422,0.0,0.0,0.0,0.0
2067.35,0.0,0.0,0.0,0.0
2069.279,0.0,0.0,0.0,0.0
2071.207,0.0,0.0,0.0,0.0
2073.136,0.0,0.0,0.0,0.0
2075.064,0.0,0.0,0.0,0.0
2076.993,0.0,0.0,0.0,0.0
2078.921,0.0,0.0,0.0,0.0
2080.85,0.0,0.0,0.0,0.0
2082.778,0.0,0.0,0.0,0.0
2084.707,0.0,0.0,0.0,0.0
2086.635,0.0,0.0,0.0,0.0
2088.564,0.0,0.0,0.0,0.0
2090.492,0.0,0.0,0.0,0.0
2092.421,0.0,0.0,0.0,0.0
2094.349,0.0,0.0,0.0,0.0
2096.278,0.0,0.0,0.0,0.0
2098.206,0.0,0.0,0.0,0.0
2100.135,0.0,0.0,0.0,0.0
2102.063,0.0,0.0,0.0,0.0
2103.992,0.0,0.0,0.0,0.0
2105.92,0.0,0.0,0.0,0.0
2107.849,0.0,0.0,0.0,0.0
2109.777,0.0,0.0,0.0,0.0
2111.706,0.0,0.0,0.0,0.0
2113.634,0.0,0.0,0.0,0.0
2115.563,0.0,0.0,0.0,0.0
2117.491,0.0,0.0,0.0,0.0
2119.42,0.0,0.0,0.0,0.0
2121.348,0.0,0.0,0.0,0.0
2123.277,0.0,0.0,0.0,0.0
2125.205,0.0,0.0,0.0,0.0
2127.134,0.0,0.0,0.0,0.0
2129.062,0.0,0.0,0.0,0.0
2130.991,0.0,0.0,0.0,0.0
2132.919,0.0,0.0,0.0,0.0
2134.848,0.0,0.0,0.0,0.0
2136.776,0.0,0.0,0.0,0.0
2138.705,0.0,0.0,0.0,0.0
2140.633,0.0,0.0,0.0,0.0
2142.562,0.0,0.0,0.0,0.0
2144.49,0.0,0.0,0.0,0.0
2146.419,0.0,0.0,0.0,0.0
2148.347,0.0,0.0,0.0,0.0
2150.276,0.0,0.0,0.0,0.0
2152.204,0.0,0.0,0.0,0.0
2154.133,0.0,0.0,0.0,0.0
2156.061,0.0,0.0,0.0,0.0
2157.99,0.0,0.0,0.0,0.0
2159.918,0.0,0.0,0.0,0.0
2161.847,0.0,0.0,0.0,0.0
2163.775,0.0,0.0,0.0,0.0
2165.704,0.0,0.0,0.0,0.0
2167.632,0.0,0.0,0.0,0.0
2169.561,0.0,0.0,0.0,0.0
2171.489,0.0,0.0,0.0,0.0
2173.418,0.0,0.0,0.0,0.0
2175.346,0.0,0.0,0.0,0.0
2177.275,0.0,0.0,0.0,0.0
2179.203,0.0,0.0,0.0,0.0
2181.132,0.0,0.0,0.0,0.0
2183.06,0.0,0.0,0.0,0.0
2184.989,0.0,0.0,0.0,0.0
2186.917,0.0,0.0,0.0,0.0
2188.846,0.0,0.0,0.0,0.0
2190.774,0.0,0.0,0.0,0.0
2192.703,0.0,0.0,0.0,0.0
2194.631,0.0,0.0,0.0,0.0
2196.56,0.0,0.0,0.0,0.0
2198.488,0.0,0.0,0.0,0.0
2200.417,0.0,0.0,0.0,0.0
2202.345,0.0,0.0,0.0,0.0
2204.274,0.0,0.0,0.0,0.0
2206.202,0.0,0.0,0.0,0.0
2208.131,0.0,0.0,0.0,0.0
2210.059,0.0,0.0,0.0,0.0
2211.988,0.0,0.0,0.0,0.0
2213.916,0.0,0.0,0.0,0.0
2215.845,0.0,0.0,0.0,0.0
2217.773,0.0,0.0,0.0,0.0
2219.702,0.0,0.0,0.0,0.0
2221.63,0.0,0.0,0.0,0.0
2223.559,0.0,0.0,0.0,0.0
2225.487,0.0,0.0,0.0,0.0
2227.416,0.0,0.0,0.0,0.0
2229.344,0.0,0.0,0.0,0.0
2231.273,0.0,0.0,0.0,0.0
2233.201,0.0,0.0,0.0,0.0
2235.13,0.0,0.0,0.0,0.0
2237.058,0.0,0.0,0.0,0.0
2238.987,0.0,0.0,0.0,0.0
2240.915,0.0,0.0,0.0,0.0
2242.844,0.0,0.0,0.0,0.0
2244.772,0.0,0.0,0.0,0.0
2246.701,0.0,0.0,0.0,0.0
2248.629,0.0,0.0,0.0,0.0
2250.558,0.0,0.0,0.0,0.0
2252.486,0.0,0.0,0.0,0.0
2254.415,0.0,0.0,0.0,0.0
2256.343,0.0,0.0,0.0,0.0
2258.272,0.0,0.0,0.0,0.0
2260.2,0.0,0.0,0.0,0.0
2262.129,0.0,0.0,0.0,0.0
2264.057,0.0,0.0,0.0,0.0
2265.986,0.0,0.0,0.0,0.0
2267.914,0.0,0.0,0.0,0.0
2269.843,0.0,0.0,0.0,0.0
2271.771,0.0,0.0,0.0,0.0
2273.7,0.0,0.0,0.0,0.0
2275.628,0.0,0.0,0.0,0.0
2277.557,0.0,0.0,0.0,0.0
2279.485,0.0,0.0,0.0,0.0
2281.414,0.0,0.0,0.0,0.0
2283.342,0.0,0.0,0.0,0.0
2285.271,0.0,0.0,0.0,0.0
2287.199,0.0,0.0,0.0,0.0
2289.128,0.0,0.0,0.0,0.0
2291.056,0.0,0.0,0.0,0.0
2292.985,0.0,0.0,0.0,0.0
2294.913,0.0,0.0,0.0,0.0
2296.842,0.0,0.0,0.0,0.0
2298.77,0.0,0.0,0.0,0.0
2300.699,0.0,0.0,0.0,0.0
2302.627,0.0,0.0,0.0,0.0
2304.556,0.0,0.0,0.0,0.0
2306.484,0.0,0.0,0.0,0.0
2308.413,0.0,0.0,0.0,0.0
2310.341,0.0,0.0,0.0,0.0
2312.27,0.0,0.0,0.0,0.0
2314.198,0.0,0.0,0.0,0.0
2316.127,0.0,0.0,0.0,0.0
2318.055,0.0,0.0,0.0,0.0
2319.984,0.0,0.0,0.0,0.0
2321.912,0.0,0.0,0.0,0.0
2323.841,0.0,0.0,0.0,0.0
2325.769,0.0,0.0,0.0,0.0
2327.698,0.0,0.0,0.0,0.0
2329.626,0.0,0.0,0.0,0.0
2331.555,0.0,0.0,0.0,0.0
2333.483,0.0,0.0,0.0,0.0
2335.412,0.0,0.0,0.0,0.0
2337.34,0.0,0.0,0.0,0.0
2339.269,0.0,0.0,0.0,0.0
2341.197,0.0,0.0,0.0,0.0
2343.126,0.0,0.0,0.0,0.0
2345.054,0.0,0.0,0.0,0.0
2346.983,0.0,0.0,0.0,0.0
2348.911,0.0,0.0,0.0,0.0
2350.84,0.0,0.0,0.0,0.0
2352.768,0.0,0.0,0.0,0.0
2354.697,0.0,0.0,0.0,0.0
2356.625,0.0,0.0,0.0,0.0
2358.554,0.0,0.0,0.0,0.0
2360.482,0.0,0.0,0.0,0.0
2362.411,0.0,0.0,0.0,0.0
2364.339,0.0,0.0,0.0,0.0
2366.268,0.0,0.0,0.0,0.0
2368.196,0.0,0.0,0.0,0.0
2370.125,0.0,0.0,0.0,0.0
2372.053,0.0,0.0,0.0,0.0
2373.982,0.0,0.0,0.0,0.0
2375.91,0.0,0.0,0.0,0.0
2377.839,0.0,0.0,0.0,0.0
2379.767,0.0,0.0,0.0,0.0
2381.696,0.0,0.0,0.0,0.0
2383.624,0.0,0.0,0.0,0.0
2385.553,0.0,0.0,0.0,0.0
2387.481,0.0,0.0,0.0,0.0
2389.41,0.0,0.0,0.0,0.0
2391.338,0.0,0.0,0.0,0.0
2393.267,0.0,0.0,0.0,0.0
2395.195,0.0,0.0,0.0,0.0
2397.124,0.0,0.0,0.0,0.0
2399.052,0.0,0.0,0.0,0.0