File: Glass FTIR Baseline Share With Sarah 2023/Files from 1_19_23/1630_Peaks_Baseline_removed.csv
Wavenumber,WD23MI02,WD33MI03,WD71AMI01,SH01MI11,SH01MI05,WD23MI03A,FI38MI01C,SH01MI12B,CV09EMI05,FI38MI01B,SH01MI12A,OK14MI07,OK14MI12,OK14MI01,WD35MI04A,OK14MI06C,FI45MI02,WD70MI03,Terry3MI03,WD70MI01A,WD35MI02,FI45MI06,WD35MI01,WD07MI01B,FI38MI05A,SH58MI01,SH63MI34,OK17MI05A,FI45MI04A,JFL30AMI12,SH63MI24
1400.09,0.00890504,0.00477517,0.0362671,0.008385,0.0053846,0.0248888,0.00638968,0.00807982,0.00938947,0.00543978,0.011019,0.0112425,0.00374133,0.00513928,0.00760772,0.00135815,0.0129276,0.00855703,0.00620073,0.0127192,0.00794104,0.0123042,0.0133497,0.00558377,0.00665762,0.00552155,0.00898315,0.00204469,0.00924173,0.011934,0.00472347
1403.947,0.00775232,0.00504166,0.0362299,0.0087544,0.00571425,0.0256724,0.00627473,0.00790884,0.0094914,0.00572538,0.0107336,0.011088,0.00330918,0.0052973,0.00770449,0.00112569,0.0129057,0.0088387,0.00597988,0.0134273,0.00843202,0.0119828,0.0139402,0.00621791,0.00714115,0.00605018,0.00876651,0.00214959,0.00923641,0.0122024,0.0043642
1407.804,0.00745811,0.00532206,0.0361483,0.00922616,0.00599549,0.0263622,0.00621172,0.00793837,0.00964096,0.00608883,0.0104058,0.0104817,0.00290257,0.00469724,0.00767485,0.00101312,0.0132261,0.00927268,0.00572149,0.0140356,0.00878926,0.0119968,0.0137749,0.00705289,0.00735284,0.00614207,0.00830188,0.00216805,0.00979347,0.0123504,0.0046396
1411.661,0.00741745,0.0051888,0.0355487,0.00922906,0.00593773,0.0256934,0.00620369,0.0082892,0.00973712,0.00623434,0.00961374,0.0118249,0.0027172,0.00459909,0.00734258,0.00077466,0.0131714,0.00959496,0.00561879,0.0141853,0.00900981,0.0114838,0.0137079,0.00739622,0.0071274,0.00547029,0.00827102,0.00221632,0.0102776,0.0114595,0.00517756
1415.518,0.00478944,0.00524109,0.0350007,0.00878274,0.00572001,0.0247197,0.00609275,0.00829794,0.00973041,0.00617951,0.00913173,0.0131704,0.00213082,0.00454296,0.00663917,0.00061764,0.0129656,0.00993841,0.00339066,0.0141143,0.00897564,0.0110818,0.0134925,0.00721622,0.00633108,0.00470515,0.00863543,0.00209839,0.010953,0.0103784,0.00558612
1419.375,0.0120032,0.00516087,0.034612,0.00831184,0.00557237,0.02414,0.00613297,0.00839896,0.00966193,0.00597987,0.00930449,0.0128885,0.00171722,0.00376981,0.00624184,0.000523347,0.0129124,0.0100566,0.00547745,0.0137354,0.00930766,0.0108154,0.0129537,0.00689217,0.00540878,0.00454569,0.00913183,0.00179287,0.0116521,0.00973422,0.00560105
1423.232,0.00671751,0.00545957,0.0345175,0.00777166,0.00560542,0.0243403,0.00627034,0.00816224,0.00965197,0.0052174,0.00978329,0.0121966,0.00182821,0.00413182,0.0062498,0.000454648,0.0129372,0.0101405,0.00567926,0.0131643,0.00967426,0.0111048,0.0124308,0.00651684,0.0044803,0.00491629,0.00939709,0.00150588,0.0117885,0.00954811,0.00574073
1427.089,0.00457702,0.00576993,0.0342944,0.00737811,0.00581804,0.0245404,0.006287,0.00824407,0.00964524,0.00480079,0.010331,0.0110286,0.00239897,0.00444595,0.00635143,0.000518009,0.0129828,0.0101593,0.00475656,0.0128108,0.00988982,0.0115767,0.0122892,0.00618302,0.00419161,0.00556294,0.00955654,0.0013587,0.0115567,0.00994872,0.00558607
1430.946,0.0056193,0.00566071,0.0345602,0.00769774,0.00630487,0.0253321,0.00633393,0.00801904,0.00948957,0.00453314,0.0108187,0.0087933,0.00300137,0.00425101,0.00665158,0.000600476,0.0132676,0.0101301,0.00529386,0.0126642,0.00976827,0.0123102,0.012242,0.00611301,0.00446236,0.00621808,0.00944949,0.00125291,0.0116179,0.0112824,0.00553723
1434.803,0.00243304,0.00518069,0.0344866,0.00847474,0.00674012,0.0259236,0.0063174,0.00765129,0.00932789,0.00457094,0.0107683,0.00814909,0.00371635,0.0041528,0.00718924,0.000766044,0.0134507,0.00991698,0.00376915,0.0125096,0.00933737,0.0130393,0.0122787,0.0062692,0.0049042,0.00665229,0.00878615,0.00124132,0.0110492,0.0123862,0.00563457
1438.66,0.00789386,0.00487848,0.0346176,0.0090828,0.00713299,0.0261255,0.00620192,0.00770998,0.00923413,0.0050053,0.0105883,0.00815385,0.00431449,0.00497264,0.00742903,0.000937331,0.0132295,0.00959545,0.00769686,0.0124973,0.00893122,0.0126549,0.0125397,0.00659021,0.00563839,0.00664992,0.00845126,0.00144593,0.0104457,0.0130139,0.00552096
1442.517,0.00583002,0.00503835,0.0351426,0.00918731,0.0073908,0.0265976,0.0060406,0.00855151,0.00921343,0.00530979,0.0108346,0.00803519,0.00428416,0.00572836,0.00758568,0.00112124,0.0127349,0.00939778,0.00597778,0.0129112,0.00846383,0.0123998,0.0128175,0.00708475,0.00639048,0.00630956,0.00868508,0.00165293,0.0099622,0.0134251,0.00523427
1446.374,0.00713417,0.00476243,0.0351967,0.00962191,0.00722073,0.0262388,0.0060777,0.00924657,0.00930684,0.00603306,0.0109672,0.00918972,0.00402627,0.0068821,0.00751225,0.00131897,0.0124553,0.00911739,0.00573027,0.0131491,0.00789551,0.0122982,0.013229,0.00752557,0.00691379,0.00599716,0.0092483,0.00196464,0.00930881,0.0128703,0.00549659
1450.231,0.00958406,0.00479101,0.0346127,0.00928889,0.00654508,0.0249737,0.00608124,0.00954823,0.00924208,0.00673849,0.0109093,0.0113712,0.00343478,0.00667869,0.00685966,0.00149379,0.0120332,0.0086813,0.00657911,0.0130664,0.00757698,0.0116995,0.0136767,0.00724778,0.00725493,0.00540507,0.00935539,0.00221468,0.00852381,0.0111864,0.00610606
1454.088,0.00549598,0.00457998,0.0340513,0.00866557,0.00547851,0.0236333,0.0057632,0.00976133,0.00913759,0.0075815,0.0106858,0.011813,0.00273444,0.00590911,0.00626437,0.0016341,0.0113454,0.00828308,0.00279999,0.01302,0.00768703,0.0112878,0.013741,0.006332,0.00720631,0.00463827,0.00945042,0.00244137,0.00890875,0.00981049,0.0061403
1457.945,0.0114725,0.00472757,0.0337842,0.00797411,0.00457588,0.02297,0.00536911,0.00911955,0.00890316,0.00816844,0.0104957,0.0118559,0.00172969,0.00491781,0.00576139,0.00177514,0.0106912,0.00789716,0.00500722,0.0129815,0.00794643,0.0114518,0.01323,0.00523085,0.0066493,0.00430844,0.00874602,0.00236997,0.00990825,0.00897314,0.00603249
1461.802,0.00788968,0.00493833,0.0336533,0.00738273,0.00416993,0.0223578,0.00512584,0.00757916,0.00863513,0.00825242,0.010358,0.0118806,0.00116957,0.00430333,0.00548081,0.00187983,0.0104493,0.00749887,0.0038558,0.0128317,0.0081689,0.0108308,0.0122626,0.00406479,0.00548417,0.00430472,0.00781283,0.002163,0.00998783,0.00816377,0.00638248
1465.659,0.00619235,0.00492322,0.0334345,0.00729297,0.00353464,0.0214397,0.00517616,0.00556754,0.0082898,0.00755165,0.0100641,0.00954739,0.00113095,0.00414148,0.00557142,0.00188218,0.0101816,0.00693459,0.00342248,0.012373,0.00798414,0.00992172,0.0104834,0.00285094,0.00402086,0.00386377,0.00652509,0.00185933,0.0102592,0.00757711,0.00674977
1469.516,0.00195777,0.00510032,0.0335813,0.00758856,0.00328594,0.0210444,0.00524002,0.00419763,0.00782732,0.006428,0.0102733,0.00749382,0.00177556,0.00422536,0.00628838,0.00184876,0.0102089,0.00671302,0.000916387,0.0122023,0.00762401,0.00973201,0.00943783,0.002268,0.00276231,0.00347522,0.0057827,0.0014861,0.0101601,0.00768902,0.00713776
1473.373,0.00387784,0.00467793,0.0329518,0.00878191,0.00280734,0.0199845,0.00525741,0.0029272,0.00725864,0.00584941,0.0100493,0.00726836,0.00269142,0.00408195,0.00707503,0.00176085,0.0103228,0.00613809,0.00235463,0.0117924,0.00711818,0.00983018,0.00901594,0.00194705,0.00206638,0.00307627,0.00507432,0.00117399,0.00935126,0.00768644,0.00780779
1477.23,0.00233217,0.00451944,0.0328977,0.00985159,0.0026345,0.0207843,0.00542049,0.00250583,0.00689084,0.00529312,0.00997598,0.00649532,0.00399894,0.00366112,0.0078559,0.00170323,0.010408,0.00594677,0.00310201,0.0117289,0.00713972,0.0100553,0.00899411,0.00230099,0.00211035,0.00272776,0.005162,0.00103402,0.00918741,0.00762487,0.00794165
1481.087,0.00144513,0.00463531,0.0327988,0.0109518,0.00253496,0.0224429,0.00542153,0.00273982,0.00664226,0.00582931,0.00986906,0.0067557,0.00487078,0.00367079,0.00841759,0.00162108,0.0106403,0.00573723,0.00272095,0.0117348,0.00721857,0.0103961,0.0096121,0.0029638,0.00297997,0.00239423,0.0053957,0.00117677,0.00936594,0.00748036,0.00793093
1484.944,0.00165757,0.0057063,0.0336548,0.0114851,0.00336803,0.0249739,0.00538095,0.00390269,0.00668739,0.00677144,0.0105977,0.00906141,0.00540891,0.00351247,0.00879626,0.00152124,0.0110847,0.00597544,0.00263405,0.0121958,0.00765935,0.0115321,0.0105415,0.00414665,0.00450787,0.00273963,0.00617041,0.00142711,0.00994914,0.00802787,0.00768425
1488.801,0.00231719,0.00598222,0.0348413,0.0120578,0.00421495,0.0264207,0.00553669,0.00495056,0.00718204,0.00795779,0.0111461,0.0104171,0.00546217,0.00348273,0.00897112,0.00123325,0.0117429,0.00642173,0.00300427,0.0125449,0.00791458,0.0126893,0.011366,0.00491316,0.00598223,0.0030805,0.00687899,0.00194196,0.0102084,0.00819309,0.00735436
1492.658,0.00476557,0.00667811,0.0372785,0.012591,0.0057429,0.029048,0.00576567,0.00635911,0.00800631,0.0086253,0.0119627,0.0101507,0.00516954,0.00345332,0.00904274,0.00107226,0.0130397,0.00729782,0.0041154,0.0130593,0.00821552,0.0143663,0.0120713,0.00588085,0.00749366,0.00397123,0.00727069,0.00240069,0.0114066,0.0087228,0.00659445
1496.515,0.00491334,0.0062855,0.0385223,0.0128044,0.00636831,0.0300374,0.00614033,0.00750731,0.00866619,0.00957757,0.0122676,0.00866579,0.00432486,0.00319952,0.00880922,0.000812915,0.0140594,0.00802803,0.00312402,0.0130431,0.00826025,0.0155136,0.0128566,0.00627863,0.00821972,0.00476727,0.00769301,0.00283777,0.0130888,0.00933162,0.00577178
1500.372,0.00376289,0.00541204,0.0377364,0.0123584,0.0061323,0.028929,0.00680252,0.00735296,0.00890611,0.00992333,0.0115408,0.0051335,0.0023136,0.00233327,0.00818737,0.00010084,0.014061,0.00858375,0.00358487,0.0121466,0.00739243,0.0162096,0.0121607,0.0057675,0.00773425,0.00450116,0.00671992,0.0027698,0.0143129,0.00915064,0.00477096
1504.229,-0.000142106,0.00524156,0.037641,0.0131414,0.0061738,0.030949,0.00766812,0.00740077,0.0093453,0.0107838,0.0113359,0.00482635,0.00215963,0.00318285,0.00825521,2.84725e-05,0.0150731,0.00923658,0.00180238,0.0121817,0.00786477,0.0167706,0.0119384,0.00593174,0.00727639,0.00496935,0.00642206,0.00327969,0.0157086,0.00931316,0.00493133
1508.086,0.00495336,0.00604098,0.0386016,0.0143059,0.0063194,0.0331608,0.00857305,0.00747952,0.00972511,0.0117385,0.0113188,0.00592546,0.00229458,0.00364552,0.0089995,-2.54535e-05,0.0167431,0.00990736,0.00338672,0.012357,0.00856199,0.0174639,0.0113628,0.00643353,0.00715187,0.00509527,0.00656075,0.00369475,0.0182426,0.00983949,0.00521841
1511.943,0.000266861,0.00747499,0.0401764,0.0161091,0.00644592,0.0355987,0.0093053,0.00797272,0.0103857,0.0119155,0.0115299,0.00915257,0.00272965,0.00474628,0.0104014,-0.000104102,0.0180829,0.0104386,0.00355816,0.0125256,0.00923531,0.0182178,0.0106508,0.0069091,0.00701103,0.00448539,0.0074238,0.00396824,0.020392,0.0112761,0.00591036
1515.8,0.00109648,0.0091168,0.043132,0.0183001,0.006558,0.0387964,0.0100943,0.00894617,0.011258,0.0121403,0.0120295,0.0121538,0.00322954,0.00526381,0.0120922,-8.21736e-05,0.0196363,0.0109707,0.00429188,0.0131276,0.00985052,0.0192528,0.0105705,0.00770879,0.00685258,0.00394075,0.00823409,0.00420843,0.0211669,0.0127972,0.00655587
1519.657,-0.000433461,0.0111731,0.0479923,0.0201742,0.00758221,0.0432457,0.0109047,0.0105268,0.012453,0.0120085,0.0130998,0.0136747,0.00412804,0.00535484,0.0140486,0.000205593,0.0217576,0.0120833,0.00467167,0.014339,0.0108586,0.0208328,0.0113325,0.00936816,0.00739026,0.00421355,0.0095322,0.0043087,0.0222917,0.0149154,0.00677798
1523.514,0.00057046,0.0112899,0.0501436,0.0214438,0.00712407,0.0455707,0.0118695,0.0117426,0.0130148,0.0129655,0.0138669,0.0132369,0.00481642,0.00516753,0.0155241,0.000234452,0.0230243,0.0126962,0.00594304,0.0147869,0.0114951,0.0221568,0.0125986,0.0101886,0.00744681,0.00426367,0.0106936,0.00433976,0.0227678,0.0161093,0.00723448
1527.371,0.00241054,0.01306,0.0542503,0.02266,0.00797958,0.0499984,0.0125736,0.0132356,0.0143274,0.0141413,0.0155945,0.0121706,0.00595952,0.00567998,0.016838,0.000483556,0.0246072,0.0138101,0.00623394,0.0160387,0.0129084,0.0245952,0.0145109,0.0113786,0.00805087,0.00527465,0.0117049,0.00458611,0.0231473,0.0176402,0.00745936
1531.228,0.00236939,0.0142612,0.0550925,0.0228919,0.00826331,0.052618,0.0133182,0.0145916,0.0145865,0.0150766,0.0165536,0.0112146,0.0068096,0.00626723,0.0178969,0.000685359,0.0262491,0.0148418,0.00584148,0.0172681,0.0143073,0.0274919,0.0162803,0.0115394,0.00868372,0.00613205,0.0118388,0.00473828,0.0243568,0.0180849,0.00691792
1535.085,0.00554439,0.0147975,0.0565649,0.0235183,0.00817164,0.0555546,0.0141444,0.015616,0.0155028,0.0167211,0.0174575,0.0104199,0.00704022,0.00708541,0.0185881,0.00107948,0.0280768,0.0160824,0.00568337,0.0182192,0.0159458,0.0305268,0.0184642,0.0112919,0.00992309,0.00687434,0.0121897,0.00482775,0.0269795,0.01853,0.00638813
1538.942,0.004849,0.0154264,0.0587723,0.024686,0.00832885,0.0589491,0.0148818,0.0165101,0.0169361,0.0179947,0.0182177,0.0125215,0.00662895,0.00861699,0.0191966,0.00142607,0.029946,0.017074,0.00410158,0.0191871,0.0171909,0.0330701,0.0203034,0.0108708,0.0114675,0.00726096,0.0125829,0.00486445,0.0283754,0.0190501,0.00612414
1542.799,0.00598055,0.0163114,0.0628508,0.0261109,0.00909627,0.0640217,0.0159521,0.0174796,0.0184463,0.0196603,0.0195545,0.0156266,0.00615661,0.00898837,0.0200488,0.00176168,0.0321023,0.0183669,0.00489033,0.0205349,0.0186211,0.0356388,0.0225348,0.0110034,0.0132031,0.0078457,0.0133352,0.0049575,0.0297469,0.0202293,0.00610981
1546.656,0.00806097,0.016453,0.0687459,0.028408,0.0109254,0.0696768,0.0171453,0.0188037,0.0205018,0.0211409,0.0213536,0.0186591,0.00591175,0.00965836,0.0211729,0.0020689,0.0348674,0.0196114,0.00602285,0.022276,0.0204243,0.0379695,0.0247369,0.0116767,0.0151202,0.00855464,0.0151902,0.00524716,0.0316186,0.0223096,0.00680203
1550.513,0.00880724,0.016602,0.0726455,0.0307654,0.0124987,0.0747506,0.0183003,0.0195389,0.0215349,0.0224325,0.0229005,0.0186588,0.00645294,0.0112773,0.0224972,0.00202687,0.0378215,0.0200115,0.00626817,0.0236141,0.0215785,0.0388663,0.0263439,0.0118993,0.0164399,0.0081258,0.0169949,0.00564599,0.0333811,0.0231632,0.00756772
1554.37,0.00973943,0.0190515,0.0784771,0.0337486,0.015095,0.0807957,0.0195667,0.0208017,0.0226245,0.0237036,0.0252469,0.0186474,0.00745174,0.0121807,0.0243507,0.00210586,0.040882,0.0205737,0.00618568,0.0254536,0.0229174,0.0400509,0.0280107,0.0128433,0.0171636,0.00799263,0.0194491,0.00632375,0.0352403,0.0253501,0.00863262
1558.227,0.00660056,0.0207813,0.0817668,0.0360319,0.0162483,0.0853609,0.021266,0.0223963,0.0229207,0.0258298,0.0271569,0.0195017,0.00826574,0.0124851,0.0268469,0.00243964,0.0439145,0.0210061,0.00654898,0.0273197,0.0239445,0.0414174,0.0295918,0.0135078,0.0174207,0.00785591,0.0218326,0.00695715,0.0374168,0.0269684,0.0103779
1562.084,0.0092689,0.0229082,0.0880733,0.0388819,0.0178739,0.0926821,0.0234423,0.0247029,0.0241645,0.0284784,0.0296837,0.0210776,0.00941106,0.0128616,0.029713,0.00314331,0.0473934,0.0221192,0.00892677,0.0299714,0.025499,0.0439052,0.0319096,0.0150741,0.0179528,0.00880107,0.0238032,0.00764073,0.0401198,0.029748,0.0126113
1565.941,0.0123305,0.0254221,0.0955829,0.0414265,0.0198813,0.100787,0.0257078,0.0273695,0.0255705,0.0309606,0.032743,0.0239578,0.0108358,0.014122,0.0328289,0.00395001,0.050554,0.0236528,0.0105519,0.0332261,0.0270384,0.0473594,0.0346963,0.017139,0.0184698,0.010769,0.0250368,0.00835855,0.0427853,0.0329266,0.0150661
1569.798,0.0145061,0.027487,0.105854,0.0441634,0.0222735,0.111032,0.0282492,0.030368,0.0277629,0.0333818,0.0367733,0.0282369,0.0123725,0.0157383,0.0359261,0.00498785,0.0542148,0.0258445,0.0115004,0.0373938,0.0294855,0.0526717,0.0389707,0.0195202,0.0194921,0.0134791,0.0263247,0.00919835,0.045812,0.0364703,0.0178014
1573.655,0.0161648,0.028407,0.116071,0.0469828,0.0244613,0.121308,0.0308009,0.0326819,0.0301042,0.0356406,0.0405838,0.0315563,0.0140487,0.0181688,0.0385356,0.00576745,0.0583629,0.0279912,0.0126278,0.0418273,0.0320312,0.0587395,0.0439282,0.0213161,0.0207823,0.0160041,0.0275097,0.0100009,0.0493372,0.0392771,0.0209227
1577.512,0.0189335,0.0301723,0.127341,0.0503036,0.0270296,0.132891,0.033589,0.0349206,0.0324368,0.0380114,0.0451593,0.0345992,0.0162231,0.0210845,0.0415095,0.00645653,0.0635342,0.0305814,0.0139818,0.0470392,0.035339,0.064427,0.0500219,0.0230421,0.0229882,0.0184842,0.0295398,0.0106961,0.0532058,0.0420075,0.0240062
1581.369,0.025117,0.0333107,0.142439,0.0547291,0.0300358,0.146816,0.037012,0.038087,0.0359116,0.0411243,0.0510838,0.0382714,0.0183591,0.0232374,0.0449088,0.00718194,0.070241,0.0343005,0.0161703,0.0531557,0.039878,0.0709332,0.057249,0.0254686,0.0262098,0.0214212,0.0331966,0.0113981,0.0580844,0.0465546,0.0272535
1585.226,0.0295686,0.0368768,0.160654,0.0605362,0.0329923,0.163451,0.0413513,0.0424965,0.0405063,0.0456722,0.0581658,0.0437571,0.0200474,0.0252206,0.0490836,0.00798519,0.0785455,0.0390539,0.0182935,0.0603411,0.045222,0.0785814,0.0657137,0.0283789,0.0308848,0.0244946,0.0383806,0.0121949,0.0644201,0.0527093,0.0308045
1589.083,0.0342702,0.0416513,0.18371,0.0682297,0.0370057,0.184423,0.0468695,0.0489017,0.0465245,0.0511205,0.066619,0.0514111,0.0221618,0.0279402,0.0543959,0.00899752,0.0891267,0.0453021,0.0224185,0.0693836,0.0515908,0.087586,0.0759095,0.0326211,0.0366285,0.0283339,0.0451324,0.0132275,0.0730153,0.0610682,0.0348375
1592.94,0.041252,0.0470687,0.212656,0.0782536,0.0416667,0.20957,0.0539168,0.0571592,0.0542757,0.0578815,0.0772861,0.0615152,0.0246383,0.0314159,0.0612418,0.010293,0.102005,0.0530368,0.0280463,0.080466,0.0588063,0.0984059,0.0881165,0.0382003,0.0430267,0.0333376,0.0532258,0.0148709,0.0832953,0.071744,0.0401219
1596.797,0.0469727,0.0533046,0.249231,0.0904701,0.0478173,0.240883,0.0628032,0.0676376,0.0644959,0.0659563,0.090426,0.0741219,0.0277224,0.0362669,0.0702701,0.0119893,0.118438,0.0631847,0.0333304,0.0947159,0.0683349,0.112373,0.10332,0.0457664,0.0507088,0.0398613,0.0637055,0.0170611,0.0960961,0.0854911,0.0467197
1600.654,0.057568,0.061398,0.296921,0.105441,0.055893,0.279639,0.0738943,0.0808776,0.0778399,0.0759635,0.106876,0.0902362,0.0317079,0.0425552,0.0819768,0.0141136,0.139406,0.076253,0.0418314,0.113069,0.0803532,0.130289,0.122597,0.0556239,0.0598757,0.049022,0.077159,0.0200384,0.111968,0.103387,0.0556707
1604.511,0.0687261,0.0709667,0.353847,0.122405,0.0660145,0.325141,0.087138,0.0970755,0.0936567,0.0874873,0.126664,0.10812,0.0374115,0.0511788,0.0962948,0.0165781,0.164078,0.0922678,0.0517448,0.135445,0.0952486,0.151462,0.146243,0.0677814,0.0707676,0.060881,0.0931808,0.0236681,0.13103,0.124866,0.0669218
1608.368,0.0841512,0.0825487,0.42529,0.142816,0.0784164,0.38309,0.103566,0.116534,0.11385,0.101702,0.150967,0.128249,0.044725,0.0625383,0.113541,0.0196436,0.193933,0.11221,0.0640171,0.163139,0.113455,0.177187,0.176383,0.0825573,0.0836905,0.0756439,0.113071,0.0284334,0.155353,0.152164,0.0818385
1612.225,0.10318,0.0956752,0.505705,0.165773,0.0930654,0.446433,0.122414,0.139057,0.137035,0.1182,0.179011,0.151844,0.0533775,0.0760093,0.132652,0.0232167,0.22773,0.135179,0.0771034,0.19531,0.134395,0.206629,0.212013,0.0994716,0.0986922,0.0928609,0.13619,0.0340026,0.182197,0.183566,0.0993302
1616.082,0.122305,0.110326,0.592417,0.191357,0.109824,0.515756,0.143077,0.164323,0.16281,0.136227,0.2101,0.180457,0.0631048,0.0900769,0.153098,0.0272654,0.264959,0.160958,0.0917127,0.231403,0.157827,0.23946,0.252656,0.118255,0.115408,0.112492,0.162304,0.0403672,0.211845,0.219025,0.119946
1619.939,0.147788,0.125481,0.679659,0.218196,0.127624,0.587899,0.164777,0.190887,0.18967,0.154926,0.242874,0.211736,0.0731866,0.104038,0.174186,0.0314966,0.303036,0.188061,0.108386,0.269048,0.182835,0.273279,0.295401,0.137632,0.13297,0.132954,0.189583,0.0469893,0.242051,0.256416,0.142504
1623.796,0.170114,0.139965,0.759325,0.24356,0.144414,0.655298,0.185303,0.216655,0.214569,0.172229,0.273959,0.242778,0.0827657,0.117381,0.193661,0.0354189,0.339197,0.213713,0.12074,0.304552,0.207217,0.304298,0.336911,0.155874,0.149896,0.152388,0.215284,0.0529681,0.270723,0.291209,0.163511
1627.653,0.189179,0.15301,0.81595,0.265612,0.158078,0.71378,0.203257,0.239091,0.234881,0.187316,0.30034,0.270766,0.090936,0.127459,0.210234,0.0387023,0.37005,0.234998,0.133801,0.33465,0.22816,0.33076,0.373436,0.171285,0.164581,0.168656,0.236531,0.0582631,0.293168,0.319286,0.181688
1631.51,0.202147,0.161681,0.848884,0.280814,0.166966,0.75863,0.216463,0.255521,0.247294,0.197926,0.318753,0.288276,0.0966721,0.135037,0.22201,0.040823,0.391777,0.249292,0.142036,0.355284,0.242749,0.349371,0.399787,0.18223,0.174964,0.180112,0.249673,0.0617319,0.309679,0.338397,0.192913
1635.367,0.213172,0.167058,0.865978,0.290832,0.171648,0.791612,0.225069,0.266041,0.253915,0.204261,0.329394,0.295388,0.0997111,0.139935,0.229271,0.0419147,0.405181,0.257098,0.144264,0.366805,0.251408,0.360636,0.416129,0.189047,0.180887,0.186317,0.255414,0.0637121,0.320035,0.349934,0.197912
1639.224,0.214315,0.167816,0.852663,0.292409,0.170411,0.797469,0.227094,0.268377,0.251027,0.205062,0.329649,0.291545,0.0993885,0.139905,0.229914,0.0414815,0.40684,0.255992,0.143418,0.365758,0.251574,0.3614,0.418871,0.189911,0.181003,0.186172,0.251365,0.0636939,0.320362,0.349668,0.194699
1643.081,0.209088,0.165578,0.825115,0.287696,0.164796,0.789301,0.224265,0.263465,0.243293,0.202476,0.3217,0.281693,0.0958536,0.136644,0.226115,0.0402397,0.400361,0.248607,0.138178,0.355779,0.246233,0.35634,0.41157,0.185992,0.176781,0.181863,0.240189,0.0623665,0.313938,0.342506,0.186094
1646.938,0.203943,0.159032,0.780733,0.274869,0.155028,0.762992,0.215708,0.251335,0.228563,0.194872,0.30559,0.263774,0.0899421,0.13027,0.217424,0.0379199,0.384159,0.234481,0.129813,0.336625,0.234953,0.342737,0.39274,0.177643,0.168168,0.172734,0.222661,0.0589575,0.301356,0.325889,0.171721
1650.795,0.185406,0.150454,0.725427,0.257557,0.142899,0.721585,0.203398,0.234619,0.210197,0.183517,0.284804,0.243232,0.0827824,0.121277,0.205457,0.0349538,0.362002,0.216249,0.118348,0.311832,0.219679,0.322594,0.366394,0.166261,0.156664,0.160805,0.201836,0.0544127,0.283445,0.301669,0.15493
1654.652,0.175965,0.139997,0.658079,0.236344,0.12922,0.672421,0.188397,0.214192,0.188648,0.169773,0.260829,0.219086,0.0747857,0.109815,0.190898,0.0316735,0.334445,0.195161,0.106976,0.283331,0.200878,0.298755,0.3342,0.152721,0.143163,0.146891,0.178893,0.0492451,0.260972,0.272719,0.137653
1658.509,0.161621,0.127779,0.593667,0.213792,0.115742,0.621394,0.172585,0.192539,0.166982,0.154569,0.236044,0.194818,0.0665095,0.0984818,0.17509,0.0283856,0.305399,0.173487,0.0948601,0.25387,0.180715,0.27265,0.299442,0.138383,0.129004,0.132549,0.156406,0.0436263,0.238331,0.243148,0.120741
1662.366,0.142027,0.114437,0.524948,0.191747,0.102188,0.564375,0.156287,0.169819,0.145422,0.13845,0.211181,0.169296,0.0587502,0.086499,0.158155,0.0250767,0.273883,0.151835,0.0825397,0.223974,0.15938,0.244335,0.264182,0.123264,0.114239,0.117673,0.134507,0.0382402,0.213726,0.21311,0.105477
1666.223,0.123514,0.10051,0.455683,0.169825,0.08864,0.503362,0.140235,0.147123,0.124133,0.122583,0.187349,0.14612,0.0515233,0.0746838,0.140789,0.0218835,0.240871,0.130522,0.0698483,0.194827,0.13802,0.21565,0.230034,0.107595,0.0994256,0.103148,0.113598,0.0330015,0.18841,0.183424,0.0917422
1670.08,0.107167,0.086821,0.388887,0.148233,0.0754409,0.444227,0.124657,0.124639,0.104534,0.107337,0.164117,0.124339,0.0446492,0.0642236,0.123653,0.01897,0.208875,0.110095,0.0588105,0.167607,0.117533,0.188725,0.198024,0.0918213,0.0852109,0.0890968,0.0944385,0.0280672,0.164533,0.155943,0.0790903
1673.937,0.0942637,0.0738705,0.327477,0.12836,0.0630663,0.385783,0.110016,0.104301,0.0863612,0.0933974,0.142891,0.104275,0.0387231,0.053614,0.107466,0.0163248,0.179232,0.0911752,0.0485614,0.142598,0.0982101,0.163199,0.169365,0.0770933,0.0721066,0.075745,0.0774956,0.023562,0.142457,0.129776,0.0683995
1677.794,0.0778542,0.0627029,0.273205,0.110751,0.0517391,0.330521,0.0962748,0.086231,0.0703238,0.0808397,0.123867,0.0869654,0.0336617,0.0436367,0.0925999,0.0140857,0.152169,0.0742802,0.0407362,0.120432,0.0806849,0.140003,0.143701,0.063441,0.0602467,0.0636516,0.0627082,0.0197374,0.121799,0.106546,0.0598004
1681.651,0.0659897,0.0534982,0.22472,0.0944634,0.0419688,0.281378,0.0834578,0.0708443,0.0557168,0.0692474,0.106255,0.0712301,0.0291067,0.0349041,0.0789823,0.0121688,0.127853,0.059349,0.032683,0.101274,0.0651426,0.119148,0.120543,0.0514333,0.0497487,0.0531577,0.0502331,0.0161948,0.103263,0.086188,0.0522031
1685.508,0.0584189,0.0458727,0.186342,0.0813449,0.0342576,0.241025,0.0726945,0.0584986,0.0440829,0.059382,0.091038,0.0590506,0.0251916,0.0276771,0.067136,0.0105639,0.107892,0.0471412,0.0271494,0.0853568,0.0520687,0.100775,0.101072,0.0416213,0.0411523,0.0447025,0.0398267,0.0134261,0.0875551,0.0702881,0.0461806
1689.365,0.0452159,0.0388028,0.153019,0.0701582,0.027115,0.2053,0.0631167,0.0476747,0.0341828,0.0511257,0.0775255,0.0499267,0.0217089,0.0213403,0.0568298,0.00924059,0.0902557,0.036663,0.0230844,0.0716568,0.0412423,0.084044,0.0845302,0.0333323,0.0339223,0.0380382,0.0307557,0.0113623,0.0727214,0.0565258,0.0409958
1693.222,0.03622,0.0323181,0.124042,0.0598101,0.0212433,0.173779,0.0544295,0.0377167,0.0255324,0.0436347,0.0652698,0.0418916,0.0186829,0.0163397,0.0481672,0.00807098,0.0746323,0.0275766,0.0172581,0.0595708,0.0321329,0.0686777,0.069428,0.0262929,0.0282353,0.0326056,0.0228748,0.00946693,0.0595044,0.0448964,0.0361486
1697.079,0.0306896,0.0265834,0.101408,0.0512552,0.0172517,0.148474,0.0475785,0.0294305,0.0188594,0.0372187,0.0554623,0.0361768,0.015867,0.012299,0.0416364,0.00714427,0.0623341,0.0205732,0.0136377,0.0495874,0.0246421,0.0558608,0.0564788,0.0210767,0.0242925,0.0287273,0.0166126,0.00810311,0.0488052,0.0355219,0.0317884
1700.936,0.027321,0.0214464,0.0817542,0.0433551,0.0139876,0.126113,0.0420047,0.0218937,0.0135123,0.0323652,0.0474505,0.0309131,0.013298,0.00816553,0.0364811,0.00645042,0.0520625,0.0146822,0.0112223,0.040567,0.0179806,0.0452309,0.0459195,0.0167848,0.0215829,0.0253188,0.0111208,0.00704453,0.0393066,0.0272547,0.0281967
1704.793,0.0196536,0.0176154,0.0659853,0.0365116,0.0122321,0.107742,0.03732,0.015831,0.00920238,0.02803,0.0412253,0.0259933,0.0111726,0.00545027,0.0322512,0.00594322,0.0431367,0.0100568,0.0096216,0.0333221,0.0123845,0.0367606,0.0365935,0.0135104,0.019552,0.0228673,0.00700281,0.006149,0.0314675,0.0208748,0.0244803
1708.65,0.016838,0.0149082,0.0530617,0.0308636,0.0114742,0.0924338,0.0336339,0.011211,0.00564386,0.024497,0.0363233,0.022118,0.00947331,0.00441767,0.0287302,0.00565858,0.035276,0.00634676,0.00798879,0.027175,0.00748505,0.0298368,0.028963,0.0107438,0.0178415,0.0203332,0.00432477,0.00535805,0.025412,0.0157188,0.0210415
1712.507,0.0141934,0.0126058,0.0436746,0.0268397,0.0115311,0.0808835,0.0307912,0.00852123,0.00306487,0.0214586,0.0327662,0.0210542,0.00839226,0.00409466,0.0254713,0.00547852,0.0290322,0.0035318,0.00533212,0.0223735,0.00386292,0.0247605,0.0235273,0.00854676,0.0161799,0.0180746,0.00265337,0.00486151,0.0210047,0.0119925,0.0185075
1716.364,0.0121875,0.0104442,0.0357715,0.0236992,0.0114372,0.0714702,0.0282419,0.00673674,0.00122487,0.0188995,0.029506,0.0210319,0.00786679,0.0042306,0.0227709,0.00534404,0.0239828,0.00122033,0.00364686,0.0184886,0.00141632,0.0204616,0.0198115,0.00639164,0.0143464,0.0159033,0.00181883,0.0043862,0.0168516,0.00876305,0.0161868
1720.221,0.0121672,0.00874981,0.029889,0.0217541,0.0116667,0.0633507,0.0260153,0.00599094,-3.92813e-05,0.0164575,0.0266362,0.0211789,0.00768568,0.00413678,0.0204176,0.0051606,0.0200435,-0.000283789,0.00456368,0.0155555,-0.000775411,0.0166065,0.0170832,0.00472078,0.0124945,0.0140524,0.00124843,0.003853,0.0135065,0.00647748,0.0144875
1724.078,0.00914946,0.0063011,0.024621,0.0205052,0.0112827,0.0566767,0.0243607,0.00535906,-0.00093361,0.0147842,0.0237758,0.0210876,0.0080237,0.00355606,0.0180958,0.00502372,0.0167035,-0.0014056,0.00328616,0.0132347,-0.00268725,0.0134638,0.0148229,0.0031191,0.0104908,0.0121918,0.000570908,0.00348307,0.0108807,0.00404263,0.013501
1727.935,0.00791674,0.00394671,0.0205053,0.0194014,0.010593,0.0509684,0.0227471,0.00511124,-0.00156634,0.0135989,0.0209483,0.0205747,0.00831607,0.00255746,0.0157515,0.00478797,0.0138358,-0.00183395,0.00212609,0.011813,-0.00423818,0.0112414,0.0129123,0.00199034,0.00840303,0.0112466,0.000231831,0.00291911,0.00891883,0.0020878,0.0127491
1731.792,0.00523496,0.00209324,0.0171068,0.0185088,0.00931612,0.0457831,0.0209904,0.00495966,-0.00213829,0.0129777,0.0178227,0.0188196,0.00829175,0.00201438,0.013315,0.00449098,0.0114431,-0.0023735,0.00111234,0.0109351,-0.00576607,0.00944404,0.0114257,0.00119977,0.00644204,0.0109117,-0.000377297,0.00241037,0.00741076,0.00078471,0.012542
1735.649,0.00794125,0.000488866,0.0131807,0.0173846,0.00774174,0.0403352,0.0189953,0.00451536,-0.00295086,0.0121843,0.0149372,0.0168264,0.00805573,0.00180266,0.0111113,0.00418513,0.00925398,-0.00314622,0.0032722,0.010233,-0.00667626,0.0073282,0.010199,0.000619011,0.00485383,0.0109343,-0.00114241,0.00175944,0.00629798,-0.00044375,0.0129223
1739.506,0.00465265,-0.000600815,0.0100028,0.0161358,0.00640531,0.0366454,0.0171252,0.00408903,-0.00368504,0.0117188,0.0126204,0.0147674,0.00750326,0.00169753,0.0095265,0.00374851,0.00747644,-0.00411301,0.00136722,0.00978432,-0.00675307,0.00549761,0.00934349,0.000692391,0.00373813,0.0114296,-0.00177831,0.00123131,0.00539695,-0.00111311,0.0133273
1743.363,0.00480325,-0.000871329,0.00705044,0.0140692,0.00529938,0.0333786,0.0152811,0.00365502,-0.00458879,0.010996,0.0107875,0.0127195,0.00666135,0.00139402,0.00868627,0.0030588,0.00588313,-0.00492433,0.00109596,0.00927563,-0.00621767,0.00369079,0.00845664,0.0010356,0.00332654,0.0121375,-0.00247332,0.000521676,0.00427978,-0.00159304,0.0135463
1747.22,0.00393801,-0.000658334,0.00487716,0.011657,0.00436439,0.030768,0.0135275,0.00298982,-0.00533854,0.00974102,0.00980161,0.0108816,0.00563164,0.000935527,0.00830115,0.0022919,0.00464724,-0.00543803,0.000966407,0.00862293,-0.00546779,0.00181643,0.00731814,0.00179076,0.00355597,0.0124453,-0.00303015,-0.000110473,0.00323404,-0.00209463,0.0136022
1751.077,0.00353261,-0.000882705,0.00291126,0.0089569,0.00327293,0.0283991,0.0122418,0.00226162,-0.00592414,0.0088072,0.00873408,0.00945165,0.00489065,-0.000190067,0.00811702,0.00162719,0.00355212,-0.00568558,0.000702642,0.00740214,-0.00538288,5.53525e-05,0.00538646,0.00235,0.00400407,0.0121858,-0.00329976,-0.000491665,0.00261085,-0.00284893,0.0132265
1754.934,0.00253084,-0.000985317,0.00175496,0.00630321,0.00242456,0.0268692,0.0109997,0.00209396,-0.00625585,0.00767585,0.00785736,0.00819627,0.00369186,-0.00126683,0.00802753,0.0010873,0.00283986,-0.00527514,-0.000146803,0.00607256,-0.00523004,-0.000939123,0.00360243,0.00316262,0.0047027,0.0118225,-0.0029759,-0.000839098,0.00216401,-0.00332913,0.0120211
1758.791,0.00183167,-0.000734893,0.00105298,0.00419824,0.00178621,0.0258098,0.0098396,0.00249631,-0.00623211,0.00595083,0.00707681,0.00694141,0.00266486,-0.00168675,0.00764282,0.000665217,0.00227354,-0.00467364,6.9662e-05,0.00469316,-0.00489789,-0.00165385,0.00190322,0.0039952,0.00552871,0.0108755,-0.00262053,-0.00116145,0.00205014,-0.00340976,0.0103544
1762.648,0.00424131,-0.000251293,0.00102288,0.00318047,0.00123953,0.0243472,0.00923463,0.00285512,-0.00575111,0.00447769,0.00623659,0.00617756,0.00163781,-0.00112495,0.00709463,0.000363572,0.00201357,-0.0040333,0.000502628,0.00297158,-0.00478041,-0.00208443,0.000631457,0.0043463,0.00614584,0.00940039,-0.00239318,-0.00096318,0.00195272,-0.00338137,0.00871827
1766.505,0.0032177,-0.000196747,0.00107087,0.00299174,0.000556057,0.0221977,0.00890185,0.00307256,-0.00511289,0.0037114,0.0048594,0.0055509,0.00079997,-4.74219e-05,0.00625311,0.00021378,0.00145168,-0.00362038,-0.000274641,0.00120206,-0.00445428,-0.00228832,9.53247e-05,0.00403311,0.00613825,0.00757512,-0.00210261,-0.000497646,0.00179015,-0.00334154,0.00682763
1770.362,0.00415278,-0.000458697,0.00119712,0.00320645,0.000105601,0.0199678,0.00855176,0.00332797,-0.00444983,0.00273294,0.00339722,0.00532868,8.02026e-05,0.000993975,0.0053388,-2.51002e-06,0.00101714,-0.00304512,-0.000805867,-0.000108407,-0.0037697,-0.00206929,-3.26275e-06,0.00335251,0.00590519,0.0058488,-0.001725,-0.000179446,0.00166318,-0.00302331,0.0047748
1774.219,0.00603604,-0.000988129,0.00122901,0.00344836,-0.00014681,0.0173432,0.00813989,0.00327306,-0.00380139,0.00168769,0.0021691,0.00491146,-0.000376742,0.00139212,0.00420224,-0.000138889,0.000721734,-0.00255592,0.000565329,-0.000799683,-0.00334353,-0.00205498,-0.000120516,0.00243914,0.00517023,0.00458174,-0.00139182,2.0794e-05,0.00168964,-0.00268967,0.00284618
1778.076,0.00371071,-0.00137633,0.00105178,0.00329675,-0.000120901,0.0140228,0.00732419,0.00282733,-0.00325037,0.000764693,0.00116321,0.00435469,-0.000378235,0.00129192,0.00296828,-0.000147638,0.000530164,-0.00216516,-9.17257e-05,-0.00102498,-0.00344105,-0.00176707,-0.000182874,0.00151345,0.00384496,0.00400511,-0.00116302,1.19862e-05,0.00181333,-0.00206619,0.00113483
1781.933,0.00402726,-0.00208285,0.000723534,0.00285337,8.30525e-05,0.0106771,0.0062153,0.00194479,-0.00274013,-5.2719e-05,0.000526407,0.0038206,-0.000253586,0.00063388,0.00172789,-3.49679e-05,0.000344993,-0.00180482,-0.000102681,-0.000824946,-0.00332161,-0.00151151,-0.000152282,0.000660542,0.00234677,0.00385134,-0.000932055,-5.00157e-05,0.00148486,-0.00171053,-7.00726e-05
1785.79,0.00103679,-0.0021099,0.000661597,0.00212022,0.000482503,0.00686048,0.00488034,0.000817593,-0.00220611,-0.000770099,0.000233312,0.00302441,0.000113695,0.000112939,0.000575869,2.61071e-05,9.36706e-05,-0.00154218,0.00014425,-0.000455915,-0.00315283,-0.00120942,-0.000187457,-6.22795e-06,0.000894485,0.0036002,-0.000795912,-0.000104489,0.00109719,-0.00147906,-0.000818225
1789.647,-0.000649313,-0.00216817,0.000701456,0.00107928,0.000808299,0.00282068,0.00361104,-0.000451848,-0.00173225,-0.000851849,0.000267779,0.00258,0.000325651,-0.000351731,-0.000419723,0.000200477,-8.8693e-05,-0.00135889,-0.000974317,-9.5946e-05,-0.00318058,-0.000869159,1.66047e-05,-0.000546393,-0.000724518,0.00328102,-0.000860823,-4.75463e-06,0.000249965,-0.0013114,-0.000777912
1793.504,0.00135526,-0.0022922,0.000708427,0.000114763,0.00119478,-0.000590371,0.00222831,-0.00147052,-0.00131121,-0.00062114,0.000454005,0.00167559,0.000426904,-0.000735812,-0.000887486,0.000424175,-0.000210357,-0.00113662,0.000593238,0.000550866,-0.00276939,-0.000608215,0.000381048,-0.000689707,-0.00195082,0.00276422,-0.00056529,-9.18286e-05,-0.00060213,-0.000861245,-0.000634877
1797.361,-0.000723739,-0.00217047,0.000590129,-0.000813302,0.00165424,-0.00273462,0.000962945,-0.002106,-0.00103332,-0.000497625,0.000838013,0.00111835,0.000263153,-0.000779491,-0.00086461,0.000581306,-0.000247553,-0.000850179,0.000189895,0.00129098,-0.00195763,-0.000562785,0.000529909,-0.000553604,-0.00251362,0.00198391,-0.000242245,-0.000323717,-0.000868407,-0.000348935,-0.000140388
1801.218,-0.000632977,-0.00154299,0.000408142,-0.00149132,0.00212646,-0.00360318,-8.49088e-05,-0.00252578,-0.000676699,-0.000372822,0.00120661,0.000865865,0.000275054,-0.000964598,-0.000462692,0.000737302,-0.000273501,-0.000675261,9.87619e-05,0.00178365,-0.00116454,-0.000641999,0.000397037,-0.000252188,-0.00280832,0.000989296,0.000110314,-0.000562271,-0.000678044,4.90715e-05,0.00044927
1805.075,-0.000194217,-0.000535555,2.90541e-05,-0.00178903,0.00258756,-0.00384364,-0.00103959,-0.00240557,-0.000469181,-0.000391739,0.00134354,0.000859189,0.000332448,-0.00120721,0.000117074,0.00086801,-0.000276418,-0.000467238,0.000140037,0.00196208,-0.000651902,-0.000689587,4.02817e-06,5.06788e-05,-0.00259163,-0.000179088,0.000360632,-0.000888204,-0.000633639,0.000316682,0.000961461
1808.932,-0.00124513,0.00030905,-0.000535593,-0.00160327,0.00273685,-0.00408093,-0.00150927,-0.00218099,-0.000452645,-0.000284253,0.000883023,0.000723498,-8.40522e-05,-0.00113734,0.000669811,0.000986653,-0.00028042,-0.000460233,-0.00067908,0.00161346,-7.04565e-05,-0.00108227,-0.000353312,-0.000134501,-0.00188163,-0.00132222,0.000458905,-0.00107493,-0.000411772,-8.53642e-05,0.00166941
1812.789,-0.000156942,0.000968969,-0.000935003,-0.00112407,0.00285349,-0.00403547,-0.00166127,-0.00154344,-0.0004706,-0.000336047,0.000111706,0.00057179,-0.000390591,-0.00106714,0.00110107,0.00100897,-0.000247952,-0.000430986,-0.000103912,0.000928971,0.000441402,-0.00143709,-0.000934566,-0.000332043,-0.000868187,-0.00202894,0.000349805,-0.00125312,-0.000442567,-0.000397374,0.00225019
1816.646,-0.000692673,0.0010458,-0.00121143,-0.000459593,0.00272254,-0.00409695,-0.001453,-0.000791285,-0.000475863,-0.000314079,-0.000646619,0.000616031,-0.00064957,-0.000990923,0.00103958,0.00105321,-0.00037547,-0.000446237,-7.12067e-05,-0.000120067,0.000426026,-0.00185702,-0.00139339,-0.000766826,-7.5962e-05,-0.00221098,-7.79071e-05,-0.00123419,-0.000940821,-0.000562327,0.0025211
1818.574,-0.000159487,0.000970537,-0.0014064,5.19166e-05,0.00245206,-0.00426467,-0.00125409,-0.000579484,-0.000511791,-0.000162729,-0.00104915,0.000657355,-0.000712849,-0.000795314,0.000894141,0.00108543,-0.000386153,-0.000558063,-0.00024415,-0.000675869,0.000352142,-0.00215912,-0.0015582,-0.00106271,0.000390107,-0.00214458,-0.000369227,-0.00115429,-0.00134437,-0.000638943,0.00251663