File: Glass FTIR Baseline Share With Sarah 2023/Files from 1_19_23/CO2_free_baselines_Water_removed_5-19-21.csv
Wavenumber,WD23MI02,WD33MI03,SH55MI02,SH54MI11,SH63MI02,WD71AMI01,SH63MI10,SH01MI11,SH01MI05,SH63MI39,WD23MI03A,FI38MI01C,SH01MI12B,CV09EMI05,FI38MI01B,SH01MI12A,OK14MI07,OK14MI12,AK96MI13,OK14MI01,WD35MI04A,SH63MI43,OK14MI06C,Terry3MI04A,FI45MI02,AK96MI08,WD70MI03,Terry3MI03,JFL19BMI11,WD12MI04A,FI45MI05,WD70MI01A,WD35MI02,WD07MI01A,FI45MI06,OK14MI08,WD70MI01B,WD12MI06,WD35MI01,OK14MI09,WD07MI01B,SH63MI53,FI38MI05A,SH58MI01,SH63MI34,SH01MI21,OK17MI05A,SH63MI22,FI45MI04A,SH63MI27,JFL30AMI12,VS73MI02,SH63MI25,SH63MI31,SH63MI24
1276.666,1.14474,0.809137,0.901339,0.680846,1.64411,1.36309,0.822427,0.911729,0.595285,1.0346,2.14877,0.510849,1.18558,0.614533,0.520746,1.0734,1.70304,0.825643,0.735252,0.892139,0.823824,0.838836,0.405243,0.509925,0.870219,0.661414,0.626974,0.935146,0.926324,0.940512,0.793956,0.758756,0.889702,0.826819,0.87083,0.959792,0.756172,1.07691,0.941017,1.11017,0.947907,0.64279,0.785106,1.15512,1.11597,1.01806,0.563135,0.594477,0.882595,0.779575,0.970741,0.927981,0.881958,1.05484,0.950888
1288.237,1.02853,0.722651,0.761383,0.579003,1.43279,1.2181,0.720575,0.823174,0.525877,0.878268,1.95572,0.429743,1.07854,0.540094,0.443192,0.957912,1.511,0.73224,0.633969,0.803921,0.736966,0.740343,0.356848,0.424701,0.791058,0.576708,0.560502,0.826003,0.83153,0.838111,0.715023,0.677578,0.811532,0.73978,0.78063,0.842981,0.673742,0.9534,0.85457,0.982146,0.845918,0.576205,0.700665,1.02302,0.978625,0.875882,0.499797,0.506016,0.784121,0.681581,0.857024,0.810987,0.761587,0.927474,0.833185
1299.808,0.934842,0.651768,0.656301,0.501629,1.27216,1.09916,0.638879,0.753436,0.471099,0.760396,1.7952,0.36386,0.989748,0.481417,0.381183,0.868593,1.3579,0.657417,0.556637,0.730756,0.667755,0.661925,0.319075,0.357194,0.723165,0.510542,0.507121,0.74008,0.753113,0.755621,0.650194,0.612375,0.747879,0.66945,0.707196,0.749098,0.607302,0.85541,0.784162,0.881118,0.762973,0.527421,0.632449,0.920665,0.870662,0.768496,0.449721,0.438725,0.704767,0.607379,0.766846,0.718078,0.669906,0.826447,0.741998
1311.379,0.859652,0.594247,0.579092,0.443803,1.15131,1.00229,0.574057,0.699051,0.428438,0.67334,1.66263,0.3108,0.91653,0.435753,0.332121,0.800317,1.23708,0.597963,0.498556,0.670448,0.613098,0.600058,0.289986,0.30444,0.665588,0.459377,0.464792,0.67328,0.688839,0.69017,0.5973,0.560539,0.696473,0.613172,0.648024,0.674302,0.554327,0.778727,0.727173,0.802328,0.696217,0.492662,0.577883,0.842372,0.786881,0.689034,0.410631,0.388385,0.641618,0.551818,0.696113,0.644981,0.601177,0.746993,0.672096
1322.95,0.799382,0.54803,0.523556,0.401182,1.06075,0.923921,0.523136,0.656941,0.395634,0.610332,1.55383,0.26839,0.856448,0.400631,0.293666,0.748548,1.14254,0.551006,0.455555,0.620993,0.57023,0.551585,0.267848,0.263757,0.617372,0.420076,0.431657,0.621929,0.636652,0.639094,0.554374,0.519712,0.655254,0.56854,0.60083,0.615119,0.512529,0.719532,0.681253,0.741507,0.643043,0.468605,0.534633,0.783089,0.722617,0.631403,0.380482,0.351263,0.592016,0.510402,0.641156,0.587888,0.55033,0.684863,0.618863
1334.521,0.750899,0.511247,0.484292,0.369998,0.992305,0.860831,0.48345,0.624408,0.370683,0.565474,1.46499,0.234689,0.807317,0.373863,0.263743,0.70934,1.06895,0.514004,0.42399,0.580577,0.536719,0.513714,0.251136,0.23275,0.577562,0.389903,0.40604,0.582777,0.594673,0.599941,0.519652,0.487788,0.622378,0.533402,0.563553,0.568442,0.47985,0.674404,0.644319,0.694878,0.601092,0.452369,0.500606,0.738399,0.673744,0.590278,0.357455,0.324115,0.553556,0.479285,0.598738,0.543443,0.512956,0.636331,0.578295
1346.092,0.71151,0.482217,0.456691,0.347055,0.939175,0.810187,0.45264,0.599143,0.35183,0.533736,1.39268,0.207982,0.767199,0.353538,0.240541,0.679334,1.01161,0.484751,0.400733,0.547578,0.510457,0.484012,0.238529,0.20931,0.5452,0.366515,0.386448,0.552993,0.5612,0.570473,0.491574,0.462912,0.596213,0.505856,0.534349,0.531543,0.45447,0.640318,0.614558,0.659158,0.568252,0.44152,0.473956,0.704513,0.636671,0.561098,0.339962,0.304185,0.524092,0.455265,0.566047,0.508747,0.485302,0.598181,0.546992
1357.663,0.678967,0.459446,0.436932,0.329723,0.895883,0.769532,0.428656,0.57922,0.337575,0.510944,1.33388,0.186791,0.734401,0.338027,0.222512,0.655756,0.966523,0.461374,0.383175,0.520566,0.489668,0.460406,0.22891,0.191616,0.519338,0.347959,0.371571,0.530166,0.534702,0.548661,0.468793,0.443484,0.575343,0.484253,0.5116,0.502068,0.434808,0.614647,0.590427,0.631551,0.542659,0.434064,0.453082,0.678268,0.608345,0.540056,0.326642,0.289199,0.501732,0.435778,0.5407,0.481349,0.464267,0.567712,0.522149
1369.234,0.650848,0.441481,0.420912,0.315318,0.855974,0.735821,0.409273,0.562566,0.326321,0.492844,1.2858,0.169665,0.706962,0.325602,0.208203,0.635557,0.929922,0.441903,0.36861,0.498116,0.472505,0.440712,0.221175,0.177825,0.498939,0.331959,0.35999,0.511592,0.513592,0.532235,0.450014,0.42794,0.5583,0.466868,0.493593,0.478531,0.419184,0.59448,0.570136,0.609198,0.522385,0.42789,0.436429,0.656275,0.585633,0.523149,0.316105,0.276897,0.484436,0.417983,0.519889,0.458688,0.44648,0.542209,0.500507
1380.805,0.626058,0.427417,0.407331,0.302855,0.818685,0.708505,0.393704,0.548462,0.317493,0.477718,1.2463,0.15576,0.684032,0.315604,0.19662,0.617824,0.899534,0.425543,0.355966,0.479657,0.458243,0.424217,0.21482,0.166901,0.483449,0.318072,0.351108,0.496592,0.497072,0.520304,0.434312,0.415342,0.544358,0.452918,0.479483,0.458428,0.406909,0.578932,0.553057,0.590853,0.506394,0.4223,0.42291,0.637459,0.56691,0.509023,0.307661,0.266336,0.471556,0.401304,0.50304,0.43977,0.431058,0.520263,0.481657
1392.376,0.605015,0.416457,0.396387,0.292224,0.785881,0.687381,0.381334,0.537242,0.310694,0.465407,1.21364,0.144576,0.665884,0.307694,0.187366,0.602899,0.873297,0.412197,0.344941,0.464191,0.446731,0.409786,0.20962,0.158543,0.471698,0.306332,0.344522,0.484592,0.483941,0.511895,0.421581,0.405228,0.532975,0.441952,0.468916,0.440521,0.397519,0.567106,0.539468,0.575993,0.49411,0.417718,0.412257,0.621598,0.552032,0.497164,0.301044,0.257538,0.461821,0.386375,0.490351,0.423836,0.417751,0.501992,0.46563
1403.947,0.58736,0.407705,0.387105,0.283164,0.756958,0.670974,0.370784,0.528041,0.305351,0.455256,1.18704,0.135575,0.651488,0.301188,0.180504,0.590379,0.850344,0.400842,0.334979,0.450802,0.437128,0.396949,0.205095,0.151966,0.462334,0.29607,0.33942,0.474752,0.473391,0.505208,0.411255,0.397073,0.52368,0.433046,0.460771,0.424649,0.389982,0.55757,0.528758,0.563491,0.484372,0.413379,0.404238,0.607906,0.539997,0.487051,0.295639,0.250317,0.454209,0.373222,0.480178,0.410564,0.406166,0.486565,0.451562
1415.518,0.572245,0.400273,0.378572,0.275578,0.730612,0.657956,0.361038,0.520327,0.300718,0.446311,1.16497,0.128322,0.639599,0.295668,0.175394,0.579504,0.830958,0.390759,0.325903,0.438791,0.429031,0.385742,0.200977,0.146126,0.454567,0.286724,0.335221,0.465892,0.465095,0.498726,0.402758,0.390419,0.516031,0.425488,0.454119,0.410935,0.383693,0.548948,0.520072,0.552257,0.475915,0.409273,0.397592,0.595622,0.529558,0.477276,0.291055,0.244232,0.44799,0.362035,0.471659,0.399802,0.395978,0.473029,0.439129
1427.089,0.558694,0.394282,0.370091,0.269017,0.706774,0.647259,0.35159,0.514298,0.296184,0.438375,1.14596,0.12254,0.629067,0.290852,0.171356,0.569396,0.813824,0.381688,0.317117,0.428051,0.422424,0.375657,0.197269,0.14046,0.44781,0.277929,0.331516,0.4575,0.457979,0.491535,0.395472,0.384795,0.509516,0.418855,0.448525,0.398925,0.37861,0.540445,0.512462,0.542144,0.468289,0.405044,0.391513,0.584025,0.519961,0.467621,0.287011,0.238725,0.4431,0.352465,0.464331,0.390561,0.38667,0.460597,0.428012
1438.66,0.546302,0.389545,0.361726,0.263368,0.685552,0.638789,0.342487,0.50935,0.291912,0.431044,1.12978,0.117883,0.619888,0.28658,0.168187,0.56042,0.797547,0.373765,0.308086,0.418357,0.417275,0.366686,0.19413,0.135037,0.441768,0.269615,0.328146,0.449296,0.451235,0.483665,0.388942,0.380075,0.503936,0.412992,0.443832,0.388693,0.374394,0.531766,0.50617,0.533166,0.461321,0.40099,0.386507,0.573194,0.511265,0.458113,0.28323,0.233581,0.438812,0.344277,0.45775,0.382171,0.377858,0.448833,0.417726
1450.231,0.535889,0.385523,0.353662,0.258347,0.666551,0.631374,0.334066,0.505165,0.288069,0.424185,1.1161,0.114145,0.611447,0.282549,0.165952,0.552357,0.782249,0.366552,0.298925,0.409856,0.412883,0.358058,0.191566,0.13,0.436428,0.262012,0.325084,0.441441,0.445272,0.475886,0.383349,0.376151,0.499177,0.40809,0.44008,0.379671,0.37069,0.523755,0.501177,0.525144,0.454883,0.397302,0.382561,0.563587,0.503035,0.449155,0.27965,0.228765,0.435421,0.337428,0.451389,0.37498,0.36935,0.438073,0.408219
1461.802,0.527409,0.382237,0.348353,0.253595,0.650461,0.626177,0.327939,0.501824,0.285619,0.417843,1.10572,0.112347,0.605071,0.279366,0.163495,0.545213,0.769813,0.36019,0.291482,0.402771,0.409619,0.349859,0.189411,0.126107,0.433006,0.256715,0.32315,0.435389,0.440228,0.471492,0.379147,0.373145,0.495239,0.403739,0.437175,0.372976,0.368779,0.51863,0.497643,0.518536,0.450636,0.393634,0.379819,0.556445,0.496636,0.441612,0.276648,0.224552,0.433263,0.331788,0.446847,0.369603,0.361226,0.428646,0.400296
1473.373,0.520713,0.380446,0.345077,0.249329,0.636184,0.623809,0.322315,0.499407,0.28422,0.412033,1.0991,0.110972,0.601242,0.278038,0.16156,0.538981,0.759305,0.35444,0.285496,0.397653,0.407604,0.342479,0.187524,0.12317,0.431369,0.251942,0.323005,0.430747,0.436119,0.469889,0.376522,0.370908,0.493414,0.400809,0.436251,0.368613,0.368413,0.516596,0.495476,0.512983,0.448049,0.390176,0.37793,0.550652,0.492167,0.435244,0.274299,0.221024,0.433012,0.325925,0.444441,0.365385,0.353965,0.420234,0.392349
1484.944,0.514541,0.378385,0.342288,0.245814,0.624559,0.620523,0.317843,0.496785,0.282728,0.407475,1.09211,0.109642,0.596976,0.276252,0.159343,0.533654,0.750067,0.349463,0.280407,0.392951,0.405555,0.336285,0.185921,0.120545,0.429242,0.247937,0.322191,0.426474,0.432175,0.467778,0.373782,0.368868,0.491041,0.397692,0.434771,0.364901,0.367539,0.513887,0.493135,0.50804,0.445323,0.387017,0.376016,0.545653,0.487844,0.429852,0.271986,0.218049,0.432218,0.321238,0.441752,0.361936,0.348019,0.413091,0.385899
1496.515,0.509446,0.375504,0.338445,0.243258,0.61638,0.615495,0.315521,0.494615,0.280842,0.404162,1.0851,0.108662,0.591524,0.272603,0.158346,0.529307,0.743154,0.346542,0.275681,0.388531,0.40346,0.331672,0.185036,0.118376,0.42643,0.246086,0.31927,0.422716,0.428141,0.463233,0.370274,0.367375,0.487231,0.394069,0.431603,0.360467,0.36555,0.508825,0.491047,0.504399,0.442432,0.384276,0.374491,0.541638,0.483668,0.425278,0.270106,0.215248,0.429564,0.319713,0.437741,0.359472,0.343484,0.407447,0.382805
1508.086,0.506516,0.373969,0.335648,0.241762,0.611111,0.612663,0.314406,0.493812,0.279778,0.402085,1.08198,0.108302,0.588119,0.269929,0.158844,0.526233,0.739101,0.345196,0.27209,0.386086,0.402651,0.328527,0.184803,0.117352,0.425134,0.245484,0.317182,0.420421,0.425424,0.459943,0.368048,0.366902,0.484938,0.391854,0.429816,0.357656,0.364581,0.505506,0.490458,0.502494,0.441099,0.382004,0.374147,0.539199,0.481392,0.422057,0.269162,0.213256,0.428138,0.319404,0.435193,0.358451,0.340376,0.403539,0.381092
1519.657,0.502818,0.372515,0.333268,0.240157,0.604958,0.609601,0.312824,0.492329,0.278718,0.40019,1.07745,0.108131,0.58463,0.267422,0.158087,0.52295,0.733961,0.342982,0.268324,0.382963,0.401562,0.325009,0.184263,0.116021,0.42355,0.24403,0.31546,0.417705,0.423224,0.457016,0.365828,0.366002,0.482305,0.389289,0.428075,0.355267,0.363663,0.502203,0.489242,0.499976,0.439514,0.379487,0.373523,0.536442,0.47851,0.41857,0.267783,0.211477,0.427038,0.318164,0.432783,0.357043,0.336876,0.399439,0.378507
1531.228,0.499352,0.371066,0.331125,0.2389,0.599862,0.606274,0.311726,0.490751,0.277671,0.398889,1.07277,0.108129,0.581099,0.264752,0.157116,0.520053,0.729317,0.341055,0.264875,0.379974,0.400497,0.321986,0.183833,0.114824,0.421834,0.242846,0.313543,0.415138,0.421351,0.453941,0.363636,0.365168,0.479429,0.386645,0.426167,0.353279,0.362614,0.498654,0.487961,0.497713,0.437947,0.377034,0.372957,0.53404,0.475661,0.415439,0.266403,0.209994,0.425828,0.317372,0.430348,0.355956,0.333862,0.395932,0.376505
1542.799,0.495982,0.369099,0.328664,0.238102,0.596173,0.60173,0.311535,0.489039,0.276372,0.398375,1.0672,0.108271,0.576699,0.261152,0.156188,0.51758,0.72536,0.339781,0.261611,0.376759,0.399202,0.319614,0.183632,0.113716,0.419488,0.242388,0.310615,0.412631,0.419467,0.44971,0.360941,0.364408,0.475582,0.383533,0.423307,0.351001,0.360906,0.49382,0.486428,0.495829,0.436067,0.374773,0.372372,0.531981,0.472594,0.412717,0.265041,0.208696,0.42369,0.317806,0.427189,0.35518,0.331493,0.393076,0.37588
1554.37,0.492724,0.368051,0.327742,0.237211,0.592171,0.598779,0.31055,0.487175,0.275575,0.397818,1.06266,0.108252,0.573706,0.259197,0.154411,0.515211,0.721047,0.337672,0.258982,0.37427,0.398309,0.317087,0.183167,0.112726,0.417886,0.240916,0.30934,0.410333,0.418072,0.447666,0.359254,0.363592,0.473147,0.381163,0.421984,0.350324,0.360129,0.491142,0.485026,0.493675,0.43468,0.372424,0.371741,0.530036,0.470045,0.410262,0.263568,0.207797,0.423171,0.316571,0.42543,0.354501,0.329169,0.390252,0.373669
1565.941,0.489714,0.367993,0.328187,0.236161,0.58781,0.597583,0.308764,0.485242,0.275288,0.397034,1.05941,0.10816,0.572286,0.258849,0.151891,0.51289,0.716399,0.334785,0.256853,0.372579,0.39788,0.314377,0.182446,0.111836,0.417159,0.238484,0.309718,0.408231,0.417263,0.44775,0.358635,0.362742,0.472172,0.379556,0.422228,0.351241,0.360344,0.490597,0.483881,0.491253,0.433867,0.369874,0.371151,0.528187,0.468005,0.407887,0.261998,0.207216,0.424289,0.313722,0.425089,0.353924,0.32675,0.387442,0.369879
1577.512,0.487601,0.368316,0.328317,0.234975,0.583793,0.597428,0.307038,0.483961,0.275158,0.39561,1.05815,0.108109,0.571753,0.258765,0.15029,0.51058,0.712436,0.332401,0.25466,0.371743,0.397917,0.311785,0.181877,0.111142,0.417187,0.236484,0.310318,0.406443,0.416463,0.448062,0.358453,0.362222,0.471969,0.378465,0.422963,0.352271,0.360948,0.490612,0.483539,0.489175,0.433583,0.367184,0.370962,0.526524,0.466512,0.405278,0.260737,0.206378,0.425688,0.311162,0.425099,0.353639,0.324232,0.384695,0.366232
1589.083,0.486213,0.369034,0.328108,0.233665,0.579941,0.598178,0.305352,0.483166,0.275173,0.39365,1.05844,0.108279,0.572053,0.258834,0.149301,0.508238,0.708914,0.330372,0.25226,0.371507,0.398342,0.309253,0.181405,0.110556,0.417876,0.234779,0.311121,0.404842,0.415954,0.44851,0.358667,0.361922,0.472295,0.377723,0.424089,0.353473,0.361915,0.490989,0.483839,0.487319,0.433772,0.364248,0.371161,0.524985,0.46534,0.402302,0.259671,0.205348,0.427369,0.308813,0.42542,0.353554,0.321479,0.382028,0.362657
1600.654,0.485567,0.3697,0.327158,0.232216,0.576612,0.599216,0.303949,0.482907,0.275111,0.391054,1.06006,0.108406,0.572603,0.25861,0.149295,0.505874,0.706073,0.329015,0.249679,0.371853,0.398997,0.306895,0.181127,0.110066,0.418909,0.233756,0.311546,0.403416,0.415118,0.448447,0.358912,0.3619,0.472854,0.377162,0.425109,0.354288,0.36285,0.491139,0.48475,0.485781,0.434173,0.361203,0.371626,0.52355,0.464439,0.399036,0.258861,0.203927,0.428704,0.307211,0.42554,0.353705,0.318674,0.379392,0.359685
1612.225,0.48521,0.369708,0.325244,0.23065,0.573907,0.599456,0.302981,0.482876,0.274683,0.387996,1.0618,0.108228,0.572429,0.257556,0.150107,0.503464,0.703727,0.328324,0.246942,0.372325,0.399492,0.304724,0.181034,0.109532,0.419615,0.233512,0.310964,0.401964,0.413381,0.447173,0.358637,0.362025,0.472985,0.376352,0.425323,0.354151,0.363195,0.490243,0.485823,0.484435,0.434266,0.35821,0.372026,0.522072,0.463454,0.395618,0.258181,0.202039,0.428983,0.30665,0.42481,0.353956,0.315993,0.376678,0.357674
1623.796,0.484543,0.369343,0.323158,0.228833,0.57105,0.599121,0.30183,0.482461,0.274015,0.384575,1.06278,0.107779,0.571818,0.256287,0.150479,0.500867,0.700891,0.327352,0.24413,0.372608,0.399695,0.302394,0.180799,0.108734,0.41994,0.233066,0.310125,0.400201,0.411192,0.445609,0.358115,0.361932,0.472834,0.375221,0.425195,0.353839,0.363228,0.488936,0.486574,0.482693,0.43395,0.355063,0.372082,0.520317,0.462046,0.391932,0.257244,0.199951,0.428903,0.305887,0.423717,0.354021,0.313161,0.373719,0.355455
1635.367,0.483469,0.369111,0.32166,0.226864,0.567773,0.598875,0.300211,0.481537,0.273389,0.381114,1.06313,0.107238,0.571379,0.255473,0.149861,0.498171,0.697331,0.325671,0.241445,0.37276,0.399769,0.299841,0.180305,0.107741,0.420177,0.231899,0.309795,0.398203,0.40917,0.444709,0.357782,0.361555,0.472819,0.374018,0.425374,0.354136,0.363401,0.488079,0.486949,0.480463,0.433488,0.351734,0.37185,0.518373,0.460362,0.388142,0.255979,0.19801,0.429265,0.304189,0.422929,0.353905,0.310172,0.370634,0.352364
1646.938,0.482201,0.369141,0.320483,0.225026,0.564072,0.598915,0.298476,0.480631,0.272939,0.378009,1.06337,0.1069,0.571121,0.254913,0.149119,0.495491,0.693629,0.323801,0.238752,0.372699,0.399913,0.297181,0.179786,0.106823,0.420534,0.230496,0.309815,0.396264,0.407563,0.444197,0.357577,0.361163,0.472884,0.372922,0.425824,0.354604,0.363813,0.487571,0.487269,0.478268,0.433187,0.3485,0.371722,0.51646,0.458769,0.384504,0.254751,0.19629,0.430015,0.302203,0.422444,0.353707,0.307134,0.367549,0.349011
1658.509,0.480894,0.369529,0.319697,0.223482,0.560252,0.599321,0.296818,0.479854,0.272732,0.375515,1.06367,0.106889,0.571135,0.254597,0.148375,0.492976,0.690073,0.321927,0.236138,0.372503,0.400218,0.294584,0.179321,0.106094,0.421082,0.229015,0.310177,0.394514,0.406572,0.444074,0.357558,0.360845,0.473031,0.372003,0.426577,0.355347,0.364508,0.487436,0.487622,0.476304,0.433172,0.345431,0.371823,0.514748,0.457405,0.381187,0.253649,0.194912,0.4312,0.300147,0.422338,0.353563,0.304211,0.364679,0.345644
1670.08,0.479851,0.369975,0.319007,0.222505,0.557348,0.599534,0.295862,0.479357,0.272634,0.373978,1.06405,0.107208,0.570994,0.253993,0.148063,0.490917,0.687382,0.320672,0.233765,0.372286,0.400656,0.292517,0.179132,0.105703,0.421586,0.228116,0.310235,0.393126,0.406005,0.443625,0.357462,0.360781,0.472873,0.371134,0.427123,0.356079,0.365124,0.487003,0.488082,0.47497,0.433358,0.34271,0.372229,0.513522,0.456358,0.378496,0.252823,0.193901,0.432228,0.29896,0.422186,0.353764,0.301877,0.362426,0.343265
1681.651,0.478351,0.369715,0.318235,0.222133,0.555554,0.597984,0.295792,0.478445,0.272242,0.373734,1.06244,0.107656,0.569446,0.252352,0.147417,0.489297,0.685055,0.31982,0.231641,0.371304,0.400625,0.29102,0.179119,0.105357,0.421051,0.227722,0.309195,0.391691,0.405424,0.441945,0.3566,0.360647,0.471337,0.369569,0.426483,0.356367,0.364899,0.485054,0.487853,0.473912,0.432979,0.340379,0.372431,0.512565,0.45489,0.376486,0.251917,0.19327,0.432214,0.298861,0.421153,0.354102,0.300295,0.360771,0.342214
1693.222,0.476116,0.368368,0.317415,0.222268,0.555065,0.59401,0.296569,0.476728,0.271342,0.374708,1.05803,0.107932,0.56599,0.249497,0.145976,0.488093,0.682811,0.319177,0.229901,0.369425,0.399845,0.290103,0.179187,0.104881,0.419034,0.227708,0.306787,0.390001,0.40438,0.438803,0.354724,0.360275,0.46813,0.367023,0.424312,0.356155,0.363487,0.481219,0.486578,0.472859,0.431628,0.338414,0.372078,0.511742,0.452685,0.375158,0.250713,0.192956,0.430801,0.299751,0.418903,0.354506,0.299574,0.359647,0.342453
1704.793,0.473348,0.366119,0.316574,0.222753,0.555779,0.588071,0.298006,0.474287,0.269998,0.376536,1.0514,0.108005,0.561041,0.245686,0.143772,0.487226,0.680609,0.31867,0.228516,0.366938,0.398448,0.289686,0.179292,0.104259,0.415814,0.227972,0.303279,0.38807,0.402897,0.434507,0.352068,0.359683,0.46362,0.363667,0.420911,0.355657,0.361092,0.475873,0.484451,0.471739,0.429453,0.336664,0.371218,0.511017,0.449837,0.374316,0.249208,0.19286,0.428246,0.301385,0.415668,0.354996,0.299557,0.358975,0.343682
1716.364,0.469865,0.363303,0.316102,0.223484,0.557155,0.580626,0.299716,0.470916,0.268359,0.37916,1.04249,0.108008,0.555048,0.241359,0.140236,0.486586,0.677953,0.317804,0.227438,0.363775,0.396482,0.28954,0.179261,0.103399,0.411583,0.227975,0.299232,0.385787,0.401406,0.429693,0.348927,0.358715,0.458054,0.359577,0.416712,0.355385,0.358032,0.469545,0.481372,0.470266,0.426563,0.334944,0.369824,0.510274,0.446248,0.373777,0.247238,0.193108,0.425106,0.303036,0.411872,0.355431,0.299969,0.358656,0.345175
1727.935,0.466454,0.360548,0.315932,0.224416,0.559164,0.573041,0.301648,0.467338,0.266744,0.382183,1.03331,0.10815,0.549111,0.237024,0.136262,0.486187,0.675443,0.316952,0.226586,0.360666,0.394508,0.289685,0.179236,0.102571,0.407254,0.227975,0.295187,0.383534,0.400258,0.42494,0.345874,0.357713,0.452339,0.355401,0.412478,0.355587,0.354931,0.463144,0.478156,0.468836,0.423664,0.333187,0.368415,0.509732,0.442587,0.37342,0.24517,0.193605,0.422019,0.304758,0.40815,0.356045,0.300652,0.358737,0.346845
1739.506,0.463566,0.358277,0.316125,0.225325,0.561533,0.56636,0.303486,0.463929,0.26535,0.385012,1.02528,0.108368,0.544064,0.233247,0.132268,0.485914,0.673205,0.31611,0.225934,0.358203,0.392872,0.289969,0.179203,0.101865,0.403474,0.227895,0.291705,0.381481,0.399459,0.420905,0.343367,0.356826,0.447308,0.351623,0.408887,0.356529,0.352266,0.457546,0.475315,0.467492,0.421162,0.331264,0.367192,0.509391,0.439262,0.373027,0.243155,0.194184,0.419543,0.30619,0.405018,0.356904,0.301369,0.359043,0.348215
1751.077,0.461309,0.356105,0.315938,0.22605,0.564253,0.560183,0.305379,0.4609,0.263958,0.38721,1.01852,0.108501,0.539474,0.229505,0.128888,0.485607,0.671404,0.31564,0.225214,0.356359,0.391479,0.290341,0.179263,0.101218,0.400102,0.228171,0.288193,0.379568,0.398442,0.416816,0.341062,0.356136,0.442715,0.348099,0.405465,0.357434,0.349723,0.452115,0.472991,0.466305,0.418893,0.329185,0.366153,0.509115,0.436202,0.372366,0.241298,0.194468,0.417045,0.307905,0.401944,0.357956,0.302001,0.359346,0.349753
1762.648,0.45926,0.353189,0.31435,0.22647,0.56733,0.553012,0.307649,0.457923,0.26207,0.388607,1.01154,0.108516,0.534117,0.224606,0.126067,0.485048,0.669731,0.315722,0.223946,0.354415,0.389806,0.290753,0.179424,0.100308,0.39632,0.229156,0.283461,0.377356,0.396706,0.411114,0.338142,0.355434,0.437363,0.344038,0.400972,0.357281,0.346479,0.445147,0.470739,0.465052,0.416196,0.326833,0.365025,0.508593,0.432639,0.371024,0.239388,0.194117,0.413284,0.310674,0.39779,0.358956,0.302361,0.359459,0.352195
1774.219,0.45659,0.349613,0.311864,0.226348,0.569598,0.544771,0.309608,0.454345,0.259705,0.389169,1.00308,0.108407,0.527955,0.218928,0.122607,0.483933,0.666965,0.315351,0.221999,0.351773,0.387581,0.290681,0.179333,0.098811,0.391901,0.229857,0.278042,0.374421,0.394508,0.404402,0.334654,0.354289,0.431154,0.339204,0.395622,0.356441,0.342656,0.436948,0.467961,0.463032,0.412808,0.324001,0.363452,0.507408,0.428051,0.36873,0.237003,0.19326,0.4087,0.313297,0.39278,0.359439,0.301993,0.358981,0.354375
1785.79,0.453096,0.345731,0.30934,0.225446,0.570362,0.536264,0.310519,0.450043,0.257083,0.388605,0.993522,0.107775,0.521547,0.213506,0.118099,0.482132,0.662602,0.313847,0.219712,0.348742,0.384921,0.289773,0.178768,0.0967156,0.38716,0.229524,0.272911,0.370792,0.39163,0.397999,0.331037,0.352612,0.424993,0.334028,0.390294,0.355509,0.338729,0.42886,0.464637,0.459919,0.408845,0.320724,0.361227,0.505406,0.422718,0.365612,0.234063,0.19196,0.404158,0.314541,0.387621,0.359269,0.300806,0.35755,0.355069
1797.361,0.448899,0.341559,0.306803,0.22369,0.569644,0.527669,0.310307,0.445119,0.254216,0.386721,0.983254,0.106465,0.515003,0.208485,0.112721,0.479627,0.656731,0.311245,0.217164,0.345537,0.38189,0.28801,0.177739,0.0940532,0.382203,0.22818,0.268156,0.366533,0.387851,0.392049,0.32736,0.350461,0.419127,0.328648,0.385124,0.354478,0.334756,0.421106,0.460893,0.455737,0.404353,0.317031,0.358341,0.502588,0.416789,0.361692,0.230626,0.190135,0.399716,0.314345,0.382382,0.358482,0.298825,0.355091,0.354193
1808.932,0.444279,0.337509,0.304467,0.221206,0.567456,0.519658,0.308988,0.439849,0.251337,0.383668,0.973019,0.104709,0.508883,0.204191,0.106698,0.476524,0.649626,0.307648,0.214397,0.34239,0.378764,0.285459,0.176308,0.0910016,0.377449,0.225852,0.264161,0.361862,0.38362,0.386989,0.323948,0.34798,0.413933,0.323375,0.380551,0.353667,0.331101,0.414212,0.45702,0.450712,0.399712,0.312948,0.355071,0.499138,0.410591,0.357073,0.22685,0.187934,0.395837,0.312654,0.377497,0.357206,0.296067,0.351764,0.351684
1820.503,0.439341,0.333737,0.301813,0.218094,0.56362,0.512173,0.306715,0.434513,0.248474,0.379581,0.962931,0.102563,0.503184,0.200451,0.100583,0.472792,0.641562,0.303497,0.211057,0.339342,0.375627,0.28224,0.174606,0.0877521,0.373024,0.222784,0.260747,0.356937,0.379389,0.382544,0.320725,0.345214,0.409373,0.318372,0.376574,0.352696,0.327649,0.408015,0.453219,0.445445,0.395068,0.308449,0.351698,0.494991,0.404256,0.351777,0.223025,0.185297,0.392326,0.309815,0.372912,0.355425,0.292578,0.347743,0.347782
1832.074,0.433066,0.329951,0.297525,0.214611,0.557559,0.50296,0.303623,0.428731,0.245519,0.374735,0.950694,0.0991917,0.496517,0.196441,0.0941926,0.468561,0.632224,0.299403,0.206146,0.336133,0.372003,0.278911,0.172661,0.0844336,0.367894,0.218732,0.256878,0.351525,0.375987,0.377577,0.316926,0.341776,0.404232,0.313357,0.372566,0.351079,0.323095,0.401229,0.448781,0.441004,0.389412,0.303225,0.347706,0.489496,0.397059,0.346019,0.219282,0.18207,0.387961,0.305869,0.367671,0.352886,0.289044,0.343052,0.342221
1843.645,0.426708,0.326235,0.293046,0.211015,0.550778,0.494129,0.300147,0.423283,0.242746,0.368887,0.939498,0.0956087,0.490391,0.192515,0.087847,0.464356,0.622846,0.29517,0.200624,0.332944,0.368421,0.275267,0.170618,0.0809693,0.362882,0.214158,0.253201,0.34581,0.372442,0.372653,0.313582,0.338671,0.398999,0.308307,0.368641,0.349741,0.318907,0.394484,0.444399,0.436206,0.383504,0.298228,0.343112,0.484057,0.389695,0.33973,0.215381,0.17862,0.384088,0.30136,0.362406,0.350028,0.28529,0.337374,0.336097
1855.216,0.420102,0.322325,0.288363,0.207195,0.543692,0.48542,0.296181,0.417609,0.239552,0.362624,0.928988,0.0920592,0.484621,0.188552,0.0816485,0.459713,0.612859,0.290556,0.194666,0.329437,0.36464,0.271103,0.16844,0.0772534,0.357864,0.208921,0.249646,0.339904,0.368308,0.367489,0.310259,0.335598,0.393836,0.303188,0.36469,0.347715,0.314883,0.387468,0.439842,0.430959,0.377747,0.2936,0.33846,0.478651,0.382007,0.33272,0.2113,0.174964,0.380429,0.296618,0.357069,0.346554,0.281019,0.331249,0.330026
1866.786,0.413416,0.318278,0.283438,0.203006,0.53634,0.476668,0.291765,0.41148,0.235889,0.355935,0.918932,0.0886787,0.47897,0.184428,0.0752818,0.454596,0.602285,0.285347,0.188714,0.325846,0.360826,0.266461,0.166119,0.0732053,0.35285,0.203402,0.246056,0.333791,0.363838,0.362179,0.306452,0.332035,0.388894,0.297926,0.36068,0.345236,0.310689,0.380404,0.435144,0.424741,0.372284,0.288897,0.334297,0.473128,0.37398,0.325244,0.207062,0.171271,0.376773,0.291843,0.351608,0.342748,0.276044,0.32506,0.324046
1878.358,0.406652,0.314061,0.278081,0.198432,0.528728,0.46799,0.287085,0.405121,0.231875,0.348903,0.908964,0.085276,0.473256,0.180182,0.0684564,0.449202,0.591355,0.279789,0.183028,0.322164,0.357032,0.2616,0.163695,0.0688652,0.34794,0.197792,0.242472,0.327362,0.359197,0.35692,0.302133,0.327774,0.383862,0.292445,0.356516,0.342898,0.306144,0.373165,0.430204,0.417459,0.366793,0.283868,0.330398,0.467259,0.365831,0.317502,0.202667,0.167714,0.373068,0.28681,0.345897,0.338847,0.270477,0.318926,0.317588
1889.929,0.399854,0.309681,0.272415,0.193578,0.520865,0.45932,0.282286,0.398713,0.22769,0.341661,0.898295,0.0813908,0.467347,0.175862,0.0612751,0.443438,0.580059,0.273966,0.177644,0.318505,0.352971,0.256507,0.161199,0.0642973,0.342994,0.192115,0.238769,0.320606,0.35444,0.35149,0.297932,0.323122,0.378572,0.286719,0.352129,0.340953,0.30134,0.365688,0.424937,0.409348,0.360805,0.278319,0.325929,0.460934,0.35751,0.309472,0.198094,0.164043,0.369353,0.281322,0.339982,0.334979,0.264609,0.312651,0.31039
1901.5,0.392866,0.305076,0.266884,0.18856,0.51272,0.45032,0.277374,0.391833,0.223562,0.33423,0.886367,0.0768368,0.461067,0.171353,0.053931,0.437116,0.568255,0.267832,0.172522,0.314397,0.348455,0.251258,0.158557,0.05948,0.337856,0.186476,0.234881,0.31357,0.349493,0.345689,0.294095,0.318479,0.373127,0.280778,0.347334,0.33869,0.296531,0.357967,0.419211,0.400407,0.35434,0.272354,0.320565,0.454092,0.348856,0.301143,0.193208,0.160065,0.365459,0.275402,0.33389,0.331087,0.258572,0.306057,0.302775
1913.071,0.385621,0.300187,0.261739,0.183365,0.50412,0.440985,0.272277,0.384449,0.219612,0.326778,0.873389,0.0719888,0.454338,0.166634,0.0465483,0.430377,0.555855,0.261198,0.167509,0.309731,0.34357,0.245851,0.155719,0.0543451,0.332543,0.180939,0.230823,0.306178,0.344005,0.339507,0.290385,0.31367,0.367708,0.274643,0.342252,0.335887,0.291728,0.349965,0.413112,0.390642,0.347849,0.266115,0.314845,0.44667,0.339788,0.292478,0.188006,0.155709,0.361091,0.269326,0.327508,0.327164,0.252228,0.299197,0.295356
1924.641,0.378417,0.29504,0.256633,0.177978,0.495229,0.431318,0.266866,0.377058,0.215656,0.319203,0.860148,0.0673028,0.447427,0.161728,0.039086,0.423341,0.542809,0.253928,0.162452,0.304829,0.338672,0.240144,0.152635,0.0488417,0.327241,0.175505,0.22667,0.298409,0.338166,0.333153,0.286273,0.308286,0.362604,0.268284,0.336985,0.332229,0.28671,0.341793,0.406827,0.380281,0.341442,0.25967,0.309453,0.43875,0.330377,0.283556,0.182573,0.151082,0.356407,0.263231,0.320817,0.323187,0.245298,0.292204,0.288205
1936.213,0.371388,0.289811,0.250857,0.172258,0.485723,0.421322,0.261011,0.3698,0.211378,0.311145,0.847001,0.0627012,0.440645,0.156705,0.0314037,0.415892,0.529192,0.24624,0.157346,0.299951,0.333856,0.234025,0.149314,0.0430196,0.322038,0.170113,0.222454,0.290302,0.332128,0.32663,0.2818,0.302147,0.357693,0.261775,0.331734,0.328267,0.281301,0.333542,0.400351,0.369505,0.334964,0.253071,0.304329,0.430626,0.320636,0.27428,0.177062,0.146266,0.351594,0.256844,0.313907,0.319052,0.237723,0.285174,0.280817
1947.783,0.364482,0.284653,0.244161,0.166095,0.4753,0.411132,0.254694,0.36241,0.206602,0.302514,0.833998,0.0577635,0.433984,0.151673,0.0236667,0.408171,0.514954,0.23843,0.152023,0.295116,0.3289,0.22753,0.145818,0.0370405,0.316786,0.164646,0.218222,0.282046,0.325887,0.3199,0.277194,0.295698,0.352783,0.255264,0.326552,0.324567,0.275737,0.325275,0.393666,0.358373,0.328562,0.2465,0.298883,0.422351,0.31053,0.264551,0.171582,0.141249,0.346974,0.249939,0.306916,0.314624,0.22989,0.278045,0.27251
1959.354,0.357491,0.279738,0.237063,0.159605,0.464351,0.400803,0.248042,0.354939,0.201505,0.293537,0.821339,0.0523611,0.427359,0.146737,0.0161419,0.400506,0.500265,0.230603,0.146376,0.290136,0.323797,0.220677,0.142227,0.031066,0.311428,0.159,0.214047,0.273848,0.319534,0.31323,0.273095,0.289589,0.347873,0.248884,0.321499,0.321497,0.270469,0.31715,0.387015,0.347147,0.322433,0.240002,0.29285,0.413833,0.300265,0.254464,0.166161,0.136101,0.342736,0.242593,0.299897,0.309764,0.221991,0.270603,0.263245
1970.925,0.350518,0.275055,0.230202,0.153009,0.453104,0.390607,0.241186,0.347927,0.196564,0.28423,0.809212,0.0471322,0.420942,0.142018,0.00900465,0.392964,0.485683,0.222827,0.140375,0.285151,0.318894,0.21377,0.138677,0.0252346,0.306196,0.152972,0.210038,0.265797,0.313096,0.306933,0.269522,0.283965,0.343167,0.242702,0.316547,0.318482,0.265679,0.309355,0.380861,0.336165,0.316501,0.23362,0.286842,0.405362,0.290118,0.244256,0.160847,0.130906,0.33874,0.235147,0.293091,0.304442,0.213979,0.262668,0.25381
1982.496,0.343778,0.270501,0.223725,0.14652,0.441631,0.380829,0.234244,0.341582,0.192186,0.274644,0.79779,0.0427562,0.415064,0.137602,0.00228476,0.385619,0.471363,0.215193,0.133937,0.280555,0.31454,0.206847,0.13532,0.0196013,0.301307,0.146696,0.206288,0.258051,0.306677,0.301127,0.26611,0.278451,0.338857,0.236703,0.31192,0.314736,0.261251,0.30202,0.375279,0.325664,0.310649,0.227276,0.281648,0.397413,0.280399,0.234097,0.155703,0.125751,0.334732,0.227864,0.286686,0.298824,0.205818,0.254327,0.244796
1994.068,0.33754,0.266231,0.217321,0.140285,0.430441,0.371706,0.227373,0.335546,0.188595,0.265004,0.78723,0.0390867,0.409808,0.133499,-0.00403025,0.378738,0.457884,0.208039,0.127207,0.276547,0.310592,0.200075,0.132273,0.0142942,0.296699,0.140369,0.202877,0.25086,0.300503,0.29579,0.262252,0.27286,0.334922,0.231029,0.307738,0.310739,0.257058,0.295419,0.37021,0.315862,0.305068,0.221213,0.277358,0.390106,0.271185,0.2243,0.150836,0.120668,0.330853,0.220877,0.280905,0.293136,0.19781,0.245986,0.236179
2005.638,0.331672,0.262467,0.210895,0.134433,0.419953,0.363466,0.220763,0.329722,0.185739,0.255774,0.777592,0.0354606,0.405138,0.129766,-0.0100531,0.372409,0.445546,0.201615,0.12061,0.273114,0.306877,0.193649,0.129597,0.00944226,0.292283,0.134178,0.199873,0.244343,0.294817,0.291037,0.258347,0.267587,0.331237,0.225774,0.304009,0.307533,0.253285,0.289521,0.365719,0.30711,0.3001,0.215594,0.27335,0.383325,0.262754,0.215024,0.146365,0.115794,0.32751,0.21422,0.27579,0.287631,0.190483,0.238071,0.227557
2017.209,0.326233,0.259184,0.205005,0.128997,0.410297,0.356243,0.214642,0.324626,0.183181,0.247274,0.768859,0.031622,0.400932,0.126451,-0.0155831,0.366461,0.434342,0.196011,0.11438,0.269907,0.303506,0.187553,0.12731,0.00518741,0.288204,0.128396,0.197327,0.238515,0.289707,0.287075,0.254956,0.26315,0.327689,0.220874,0.300584,0.305616,0.250195,0.284386,0.362076,0.29941,0.295651,0.210417,0.2692,0.377189,0.255347,0.20653,0.142391,0.11122,0.324702,0.208031,0.271329,0.282546,0.184027,0.230761,0.218904
2028.78,0.32118,0.256265,0.200404,0.124162,0.401915,0.350015,0.209191,0.320277,0.180622,0.239665,0.761013,0.0280729,0.397239,0.123558,-0.0204771,0.360934,0.424485,0.191123,0.108597,0.267019,0.300702,0.182004,0.125386,0.00156457,0.284583,0.123279,0.195227,0.233308,0.285091,0.283867,0.252331,0.259662,0.324423,0.21628,0.297363,0.304616,0.247889,0.280025,0.359238,0.292669,0.29141,0.205554,0.265289,0.371943,0.248995,0.198942,0.138883,0.107038,0.322284,0.202553,0.267552,0.278052,0.178304,0.224093,0.21081
2040.351,0.316722,0.253509,0.197281,0.120058,0.394913,0.344808,0.204486,0.316211,0.177972,0.232984,0.753909,0.0254459,0.394142,0.12113,-0.0247876,0.356021,0.41603,0.186765,0.103411,0.264791,0.298344,0.177204,0.123763,-0.001495,0.281411,0.118966,0.193507,0.228764,0.280903,0.281156,0.250078,0.256685,0.32156,0.212009,0.294572,0.303734,0.24612,0.276382,0.356969,0.287064,0.287371,0.201208,0.262389,0.367521,0.243595,0.192353,0.135774,0.103338,0.319842,0.197882,0.264424,0.27431,0.17321,0.217979,0.204008
2051.922,0.312791,0.250891,0.19512,0.116718,0.389053,0.340541,0.200511,0.31228,0.175453,0.227294,0.747494,0.0235332,0.3915,0.119144,-0.0287688,0.351531,0.408687,0.182975,0.0990138,0.263297,0.296233,0.173184,0.122378,-0.00410248,0.278544,0.115541,0.192092,0.224877,0.277144,0.278909,0.247683,0.253826,0.319152,0.208056,0.292324,0.302512,0.244606,0.273388,0.355283,0.282541,0.283869,0.197248,0.260489,0.363599,0.239082,0.18674,0.13295,0.100206,0.317468,0.193895,0.261835,0.271449,0.168847,0.212483,0.19851
2063.493,0.309207,0.248588,0.193257,0.113992,0.384503,0.337115,0.197197,0.308867,0.173418,0.22262,0.741751,0.0214385,0.389063,0.117554,-0.0325183,0.347148,0.402559,0.179864,0.0954238,0.262243,0.294354,0.169763,0.121179,-0.00634889,0.276033,0.112973,0.190907,0.221499,0.273825,0.277173,0.244962,0.251093,0.317093,0.204411,0.290412,0.301355,0.243304,0.270963,0.354211,0.278775,0.280947,0.193465,0.25888,0.360106,0.235396,0.181981,0.130378,0.0975659,0.315526,0.190474,0.259701,0.269551,0.165266,0.207745,0.19377
2075.064,0.306094,0.246742,0.191649,0.111697,0.381118,0.334379,0.194431,0.306036,0.172048,0.218851,0.736697,0.0187715,0.386894,0.11625,-0.035926,0.343006,0.397286,0.177317,0.0925538,0.261198,0.292869,0.166927,0.120133,-0.00824768,0.274036,0.111089,0.189959,0.218403,0.270915,0.275844,0.242559,0.248919,0.315351,0.201042,0.288728,0.301247,0.242395,0.269034,0.353495,0.275735,0.278352,0.189851,0.256957,0.357275,0.232412,0.178035,0.128051,0.095327,0.314226,0.187564,0.257933,0.268583,0.162372,0.203741,0.18906
2086.635,0.303571,0.245041,0.190755,0.109686,0.378448,0.332281,0.192128,0.303341,0.1712,0.215757,0.732413,0.0160289,0.385108,0.115197,-0.0388601,0.339242,0.392696,0.175035,0.0904479,0.260172,0.291734,0.16446,0.11923,-0.00981749,0.272559,0.109675,0.189206,0.215576,0.268245,0.274681,0.240898,0.247497,0.313872,0.197946,0.287278,0.302529,0.241944,0.267517,0.352897,0.273531,0.276013,0.186462,0.254925,0.354947,0.229927,0.174735,0.125986,0.0933726,0.313236,0.18511,0.256439,0.268346,0.159955,0.200407,0.184499
2098.206,0.301491,0.243346,0.190801,0.107948,0.376271,0.330672,0.190169,0.300666,0.170551,0.213136,0.728902,0.0139867,0.383574,0.114316,-0.0412888,0.335609,0.388648,0.172841,0.0887589,0.259472,0.290792,0.162136,0.118464,-0.0111173,0.271466,0.108572,0.188633,0.213055,0.265721,0.273633,0.239851,0.246539,0.312874,0.195184,0.286271,0.304085,0.241772,0.266354,0.352476,0.27188,0.27422,0.183301,0.253483,0.352723,0.227822,0.171848,0.124167,0.0916415,0.312245,0.182932,0.255123,0.26857,0.157795,0.197551,0.18052
2109.777,0.299777,0.241785,0.191325,0.106442,0.374544,0.329509,0.188465,0.298429,0.169782,0.210847,0.726183,0.0125797,0.382118,0.113601,-0.0434012,0.331948,0.385013,0.170739,0.0874335,0.259248,0.289992,0.160156,0.117854,-0.0122491,0.270661,0.10767,0.188218,0.210749,0.263272,0.272829,0.23895,0.245612,0.312346,0.192758,0.285718,0.3049,0.241619,0.265495,0.352438,0.27044,0.273041,0.18031,0.252823,0.350589,0.226053,0.169258,0.122549,0.0900415,0.311398,0.180875,0.253936,0.269042,0.155813,0.194989,0.177353
2121.348,0.298292,0.240673,0.191566,0.105122,0.372889,0.32877,0.186933,0.29675,0.168746,0.208835,0.724318,0.0109535,0.380687,0.113034,-0.045293,0.328543,0.381569,0.16889,0.0863057,0.259241,0.289407,0.15845,0.117384,-0.0132639,0.270245,0.106879,0.187918,0.208574,0.260819,0.272271,0.237755,0.244615,0.312221,0.190661,0.285417,0.305012,0.241448,0.264884,0.352754,0.269327,0.272227,0.177434,0.252392,0.348761,0.224625,0.166885,0.121055,0.0885956,0.311032,0.178915,0.252852,0.26963,0.153996,0.192553,0.174584
2132.919,0.297025,0.24,0.191261,0.103866,0.371267,0.32843,0.185535,0.295243,0.167648,0.20697,0.723279,0.0086031,0.379433,0.112621,-0.0468637,0.325538,0.37829,0.167341,0.0853066,0.259206,0.289144,0.156849,0.117039,-0.0141407,0.270237,0.106144,0.187708,0.20655,0.258425,0.271791,0.236666,0.243886,0.312377,0.188945,0.285372,0.305139,0.241449,0.264541,0.353158,0.268609,0.271479,0.174609,0.251559,0.347166,0.223406,0.164635,0.119659,0.0872686,0.311374,0.177171,0.251887,0.270323,0.152359,0.190135,0.171636
2144.49,0.295999,0.239544,0.19089,0.102602,0.36977,0.328404,0.184266,0.293813,0.166806,0.20511,0.723079,0.00613953,0.378483,0.112366,-0.047906,0.322644,0.375296,0.165949,0.0844572,0.259249,0.289133,0.15537,0.116807,-0.01483,0.270522,0.105432,0.18762,0.204796,0.256114,0.271412,0.236126,0.243792,0.312652,0.187646,0.285591,0.306129,0.241793,0.264437,0.353605,0.268003,0.270855,0.172096,0.250456,0.345543,0.222371,0.162498,0.118405,0.0860566,0.312093,0.175665,0.251113,0.271135,0.150875,0.187705,0.168362
2156.061,0.295101,0.239085,0.191021,0.101356,0.368308,0.328725,0.183106,0.292804,0.166528,0.203314,0.723727,0.00447328,0.377651,0.112281,-0.0484046,0.319898,0.37275,0.164619,0.0836697,0.259635,0.289277,0.153942,0.116654,-0.0152796,0.270958,0.104872,0.187662,0.203332,0.253848,0.271312,0.236302,0.244307,0.313014,0.186719,0.28624,0.308026,0.242418,0.26455,0.354344,0.267426,0.270577,0.169631,0.249793,0.344009,0.22166,0.160471,0.117362,0.0849872,0.312786,0.174232,0.250518,0.272006,0.149507,0.185271,0.165171
2167.632,0.294302,0.238828,0.191615,0.100235,0.366946,0.329415,0.182045,0.292396,0.166798,0.201648,0.725183,0.00360278,0.376877,0.112321,-0.0484825,0.317578,0.370599,0.163378,0.0827313,0.260624,0.289654,0.152481,0.11654,-0.0155063,0.271598,0.104442,0.187841,0.20209,0.251699,0.271469,0.236606,0.245028,0.313718,0.186154,0.287279,0.309634,0.243117,0.264914,0.355503,0.267037,0.270609,0.167286,0.249943,0.342798,0.221279,0.15858,0.116572,0.084027,0.313372,0.172804,0.250073,0.272844,0.148176,0.182932,0.162512
2179.203,0.293745,0.239058,0.192058,0.0992852,0.365642,0.33038,0.18108,0.292251,0.16728,0.200122,0.72746,0.00266197,0.376396,0.112451,-0.0482346,0.31563,0.368778,0.162437,0.0816687,0.261886,0.290474,0.151023,0.116471,-0.0155574,0.272592,0.104186,0.18814,0.201039,0.24965,0.271726,0.236733,0.24569,0.314825,0.185974,0.288628,0.310187,0.243782,0.265578,0.35684,0.266824,0.270749,0.165045,0.250513,0.341856,0.221169,0.156868,0.116018,0.0831287,0.314181,0.171379,0.249891,0.273604,0.14688,0.18081,0.160362
2190.774,0.293462,0.239811,0.191909,0.0984867,0.364324,0.331569,0.180234,0.292118,0.167639,0.198656,0.730412,0.0010126,0.376267,0.112634,-0.0476373,0.313787,0.367249,0.161851,0.0806014,0.263056,0.291574,0.149695,0.116451,-0.0154671,0.273876,0.104027,0.188517,0.200254,0.247717,0.272066,0.236595,0.246399,0.316154,0.186173,0.290068,0.310225,0.244546,0.266415,0.358099,0.266546,0.27104,0.162773,0.250831,0.340922,0.221216,0.155309,0.115634,0.0823265,0.315731,0.17016,0.249914,0.274387,0.145751,0.178884,0.158286
2202.345,0.29337,0.240743,0.191453,0.0977634,0.363103,0.332889,0.179555,0.292323,0.167649,0.197269,0.73404,-0.000892144,0.376257,0.112848,-0.0465955,0.312138,0.366065,0.16146,0.0794708,0.264156,0.292687,0.148475,0.116496,-0.0152174,0.275222,0.103895,0.18896,0.199767,0.245963,0.272647,0.236781,0.247487,0.317588,0.186677,0.291678,0.310953,0.245552,0.267434,0.359403,0.266186,0.271679,0.16062,0.250779,0.340121,0.221514,0.153895,0.115385,0.0815851,0.317726,0.16934,0.250069,0.275353,0.144894,0.177034,0.15587
2213.916,0.293401,0.241547,0.191357,0.0971253,0.362059,0.334167,0.179055,0.292975,0.16759,0.196083,0.738247,-0.00208314,0.376302,0.11312,-0.0452698,0.311008,0.36513,0.161125,0.0783532,0.265589,0.293924,0.147529,0.116631,-0.0147734,0.276704,0.103681,0.189595,0.199543,0.244504,0.273561,0.237506,0.249188,0.31917,0.187479,0.29364,0.312787,0.246847,0.268784,0.361053,0.265964,0.272706,0.158488,0.251033,0.339696,0.222197,0.152675,0.11528,0.0809619,0.319641,0.168702,0.250488,0.276434,0.144287,0.175058,0.153291
2225.487,0.293642,0.242619,0.19175,0.0966421,0.361177,0.335325,0.17869,0.29383,0.16778,0.195029,0.742872,-0.00253117,0.376581,0.113535,-0.0437296,0.310226,0.364242,0.160878,0.0774517,0.267653,0.295475,0.146662,0.116864,-0.0141676,0.278478,0.103432,0.190422,0.199683,0.243367,0.274693,0.238677,0.251343,0.321056,0.188629,0.296029,0.314939,0.248345,0.270481,0.362822,0.265906,0.274082,0.156346,0.251995,0.339564,0.223253,0.15168,0.115343,0.0805209,0.321411,0.168075,0.251306,0.27715,0.143797,0.17309,0.151018
2237.058,0.294035,0.243941,0.191999,0.0961952,0.360214,0.3366,0.178333,0.294788,0.168162,0.193998,0.747784,-0.00343802,0.376949,0.113987,-0.0418513,0.30947,0.363626,0.160778,0.0765669,0.269626,0.297136,0.145632,0.117157,-0.0134644,0.280228,0.103237,0.191161,0.199801,0.242038,0.275662,0.239606,0.253208,0.323067,0.189915,0.298284,0.316523,0.249688,0.272037,0.364416,0.265555,0.275376,0.15439,0.252977,0.33937,0.224336,0.150681,0.11554,0.0799756,0.323576,0.167438,0.252106,0.277629,0.1433,0.17169,0.149145
2248.629,0.294537,0.245365,0.192261,0.0958292,0.359268,0.337839,0.178037,0.295875,0.168624,0.193029,0.752913,-0.00431635,0.377415,0.114479,-0.0397325,0.308881,0.363185,0.160787,0.0757077,0.271747,0.298906,0.144607,0.117521,-0.0126738,0.282003,0.103024,0.191887,0.20003,0.240724,0.27662,0.240547,0.255078,0.325186,0.191358,0.300598,0.317977,0.251011,0.273619,0.365982,0.265092,0.276741,0.152549,0.254109,0.339248,0.225541,0.149779,0.115855,0.0794276,0.325846,0.166857,0.253008,0.278142,0.142865,0.170384,0.147501
2260.2,0.295104,0.246819,0.192506,0.0955306,0.358312,0.339028,0.177789,0.297054,0.169124,0.192111,0.758139,-0.00520565,0.377943,0.114992,-0.0373977,0.308421,0.362902,0.160888,0.0748559,0.273971,0.300739,0.143572,0.117948,-0.0118209,0.283745,0.102797,0.192552,0.200323,0.239375,0.277509,0.241458,0.256883,0.327359,0.192891,0.302912,0.319246,0.252264,0.275162,0.367504,0.264491,0.278114,0.150852,0.255339,0.33916,0.226817,0.14896,0.116265,0.0788447,0.328172,0.166323,0.253956,0.278814,0.142468,0.169144,0.146091
2271.771,0.295683,0.24822,0.192705,0.0952832,0.357318,0.34016,0.177579,0.29829,0.169608,0.191234,0.763331,-0.00615062,0.378494,0.115503,-0.0348706,0.308048,0.362759,0.161059,0.0739881,0.276247,0.302582,0.142507,0.118421,-0.0109326,0.285388,0.102569,0.193101,0.200627,0.237935,0.278267,0.242303,0.258548,0.329525,0.194441,0.305161,0.320275,0.253397,0.276595,0.368969,0.263727,0.279426,0.149331,0.256601,0.339064,0.228104,0.148211,0.116744,0.0781907,0.330497,0.165829,0.254885,0.279803,0.142088,0.167943,0.144912
2283.342,0.296216,0.249472,0.192818,0.0950675,0.356254,0.341237,0.177396,0.299548,0.170006,0.190388,0.768347,-0.0072012,0.37902,0.115987,-0.032174,0.307716,0.362738,0.161276,0.0730751,0.27851,0.304374,0.141395,0.118924,-0.0100374,0.286865,0.102355,0.193472,0.200882,0.236341,0.278827,0.243046,0.259997,0.331613,0.195924,0.307275,0.321017,0.254353,0.277839,0.370372,0.262776,0.280602,0.148026,0.257815,0.338914,0.229338,0.14752,0.117263,0.0774258,0.332757,0.16537,0.255722,0.281297,0.141702,0.166745,0.143952
2294.913,0.296634,0.250465,0.192804,0.0948615,0.355085,0.342268,0.177234,0.300793,0.170237,0.189562,0.773041,-0.00841256,0.379469,0.116417,-0.0293298,0.307375,0.362823,0.161515,0.0720826,0.280686,0.306045,0.140215,0.119433,-0.0091657,0.288099,0.10218,0.193598,0.201025,0.234523,0.279117,0.243653,0.26115,0.333543,0.19725,0.309178,0.321423,0.255074,0.27881,0.371711,0.261616,0.281557,0.146979,0.25889,0.338659,0.230448,0.14687,0.117787,0.076506,0.334883,0.164944,0.25638,0.283519,0.141285,0.165516,0.143196
2306.484,0.296863,0.251075,0.192616,0.0946401,0.353771,0.343272,0.177084,0.301988,0.170202,0.188748,0.777252,-0.00984512,0.379783,0.116762,-0.026359,0.306969,0.362999,0.161746,0.0709707,0.282693,0.30752,0.138948,0.119924,-0.00834932,0.289008,0.102073,0.193405,0.200983,0.232405,0.27906,0.244091,0.261922,0.335227,0.198318,0.310791,0.321453,0.255498,0.279415,0.372993,0.260225,0.282202,0.146243,0.259721,0.338245,0.231359,0.146248,0.118282,0.0753838,0.336797,0.16455,0.256767,0.286721,0.140811,0.164217,0.142621
2318.055,0.29682,0.251167,0.192201,0.0943752,0.352269,0.344274,0.176941,0.303099,0.169793,0.187936,0.780815,-0.0115645,0.379896,0.116989,-0.0232817,0.30644,0.36325,0.16194,0.0696941,0.284438,0.308713,0.13757,0.120368,-0.00762192,0.289504,0.102071,0.192811,0.20068,0.229905,0.278572,0.244333,0.262227,0.336567,0.199019,0.312025,0.321066,0.25556,0.279556,0.374227,0.258586,0.282439,0.145871,0.260191,0.337614,0.231986,0.145637,0.118706,0.0740076,0.338413,0.164189,0.256778,0.291187,0.140256,0.162804,0.142196
2329.626,0.296414,0.250592,0.191502,0.0940358,0.350531,0.345309,0.176799,0.30409,0.168884,0.187118,0.783554,-0.0136416,0.379739,0.117063,-0.0201174,0.305723,0.363563,0.162065,0.0682019,0.285817,0.309534,0.13606,0.120732,-0.00701882,0.289494,0.102215,0.191729,0.200033,0.226932,0.277566,0.244349,0.261975,0.337457,0.199235,0.31279,0.320226,0.25519,0.279127,0.375429,0.256681,0.282163,0.145926,0.26017,0.336704,0.232243,0.145023,0.119016,0.0723219,0.339639,0.163866,0.256299,0.297233,0.139592,0.161232,0.141884
2341.197,0.295545,0.249188,0.190455,0.0935882,0.348509,0.346418,0.176655,0.304926,0.167339,0.186285,0.785282,-0.0161525,0.379236,0.116944,-0.0168843,0.304751,0.363924,0.162084,0.0664382,0.286717,0.309882,0.134394,0.12098,-0.00657703,0.288877,0.102553,0.190065,0.198955,0.223391,0.275949,0.244115,0.261072,0.337784,0.198839,0.312988,0.318902,0.254317,0.278015,0.376619,0.254493,0.281264,0.146474,0.259512,0.335448,0.232033,0.144388,0.119164,0.0702675,0.340377,0.163586,0.255206,0.305207,0.13879,0.159452,0.141643
2348.911,0.294658,0.247706,0.189532,0.0932117,0.346975,0.347223,0.176557,0.30538,0.16588,0.185717,0.785777,-0.0181074,0.378668,0.116737,-0.0146994,0.303926,0.364185,0.162021,0.0650812,0.286991,0.3098,0.133185,0.121061,-0.00639117,0.288076,0.102913,0.188583,0.197949,0.220665,0.274484,0.243809,0.260061,0.337627,0.19817,0.312754,0.317735,0.253417,0.276836,0.37742,0.252871,0.280259,0.14715,0.258645,0.334385,0.231585,0.143946,0.119149,0.068662,0.340544,0.163428,0.254071,0.311781,0.138165,0.158124,0.141496