File: Glass FTIR Baseline Share With Sarah 2023/Files from 1_19_23/Water_Peak_1635.csv
Wavenumber,Average_1630_Peak,1630_Peak_PCA_1,1630_Peak_PCA_2,1630_Peak_PCA_3
1276.666,0.0,0.0,0.0,0.0
1278.594,0.0,0.0,0.0,0.0
1280.523,0.0,0.0,0.0,0.0
1282.452,0.0,0.0,0.0,0.0
1284.38,0.0,0.0,0.0,0.0
1286.308,0.0,0.0,0.0,0.0
1288.237,0.0,0.0,0.0,0.0
1290.166,0.0,0.0,0.0,0.0
1292.094,0.0,0.0,0.0,0.0
1294.022,0.0,0.0,0.0,0.0
1295.951,0.0,0.0,0.0,0.0
1297.88,0.0,0.0,0.0,0.0
1299.808,0.0,0.0,0.0,0.0
1301.736,0.0,0.0,0.0,0.0
1303.665,0.0,0.0,0.0,0.0
1305.594,0.0,0.0,0.0,0.0
1307.522,0.0,0.0,0.0,0.0
1309.45,0.0,0.0,0.0,0.0
1311.379,0.0,0.0,0.0,0.0
1313.307,0.0,0.0,0.0,0.0
1315.236,0.0,0.0,0.0,0.0
1317.164,0.0,0.0,0.0,0.0
1319.093,0.0,0.0,0.0,0.0
1321.021,0.0,0.0,0.0,0.0
1322.95,0.0,0.0,0.0,0.0
1324.878,0.0,0.0,0.0,0.0
1326.807,0.0,0.0,0.0,0.0
1328.735,0.0,0.0,0.0,0.0
1330.664,0.0,0.0,0.0,0.0
1332.592,0.0,0.0,0.0,0.0
1334.521,0.0,0.0,0.0,0.0
1336.449,0.0,0.0,0.0,0.0
1338.378,0.0,0.0,0.0,0.0
1340.307,0.0,0.0,0.0,0.0
1342.235,0.0,0.0,0.0,0.0
1344.163,0.0,0.0,0.0,0.0
1346.092,0.0,0.0,0.0,0.0
1348.021,0.0,0.0,0.0,0.0
1349.949,0.0,0.0,0.0,0.0
1351.877,0.0,0.0,0.0,0.0
1353.806,0.0,0.0,0.0,0.0
1355.734,0.0,0.0,0.0,0.0
1357.663,0.0,0.0,0.0,0.0
1359.591,0.0,0.0,0.0,0.0
1361.52,0.0,0.0,0.0,0.0
1363.448,0.0,0.0,0.0,0.0
1365.377,0.0,0.0,0.0,0.0
1367.305,0.0,0.0,0.0,0.0
1369.234,0.0,0.0,0.0,0.0
1371.162,0.0,0.0,0.0,0.0
1373.091,0.0,0.0,0.0,0.0
1375.019,0.0,0.0,0.0,0.0
1376.948,0.0,0.0,0.0,0.0
1378.876,0.0,0.0,0.0,0.0
1380.805,0.0,0.0,0.0,0.0
1382.733,0.0,0.0,0.0,0.0
1384.662,0.0,0.0,0.0,0.0
1386.59,0.0,0.0,0.0,0.0
1388.519,0.0,0.0,0.0,0.0
1390.447,0.0,0.0,0.0,0.0
1392.376,0.0,0.0,0.0,0.0
1394.304,0.0,0.0,0.0,0.0
1396.233,0.0,0.0,0.0,0.0
1398.161,0.0,0.0,0.0,0.0
1400.09,0.0,0.0,0.0,0.0
1402.018,0.0,0.0,0.0,0.0
1403.947,0.0,0.0,0.0,0.0
1405.875,0.0,0.0,0.0,0.0
1407.804,0.0,0.0,0.0,0.0
1409.732,0.0,0.0,0.0,0.0
1411.661,0.0,0.0,0.0,0.0
1413.589,0.0,0.0,0.0,0.0
1415.518,0.0,0.0,0.0,0.0
1417.446,0.0,0.0,0.0,0.0
1419.375,0.0,0.0,0.0,0.0
1421.303,0.0,0.0,0.0,0.0
1423.232,0.0,0.0,0.0,0.0
1425.16,0.0,0.0,0.0,0.0
1427.089,0.0,0.0,0.0,0.0
1429.017,0.0,0.0,0.0,0.0
1430.946,0.0,0.0,0.0,0.0
1432.874,0.0,0.0,0.0,0.0
1434.803,0.0,0.0,0.0,0.0
1436.731,0.0,0.0,0.0,0.0
1438.66,0.0,0.0,0.0,0.0
1440.588,0.0,0.0,0.0,0.0
1442.517,0.0,0.0,0.0,0.0
1444.445,0.0,0.0,0.0,0.0
1446.374,0.0,0.0,0.0,0.0
1448.302,0.0,0.0,0.0,0.0
1450.231,0.0,0.0,0.0,0.0
1452.159,0.0335841,0.00642691,-0.00127252,-0.00280513
1454.088,0.031838,0.00559358,-0.000870835,-0.00442433
1456.016,0.0311529,0.0045751,-0.000508475,-0.00666183
1457.945,0.0318241,0.00347663,3.52228e-05,-0.00879144
1459.873,0.0314854,0.00231085,0.00065973,-0.0111432
1461.802,0.0295637,0.00102856,0.00116171,-0.0141851
1463.73,0.0281864,-0.000301996,0.00146821,-0.01809
1465.659,0.0271486,-0.00161625,0.00180027,-0.0221569
1467.587,0.0261021,-0.00293307,0.00208767,-0.0263777
1469.516,0.024895,-0.00433068,0.00190707,-0.031448
1471.444,0.0248189,-0.00579597,0.00144622,-0.0365835
1473.373,0.0246998,-0.00710351,0.00119918,-0.04037
1475.301,0.0246483,-0.00824224,0.0010061,-0.0431221
1477.23,0.0248042,-0.00926542,0.000501916,-0.0452482
1479.158,0.0250933,-0.0100874,-0.000105612,-0.0462792
1481.087,0.0255608,-0.0107922,-0.00118798,-0.0467032
1483.015,0.02674,-0.0113967,-0.00275894,-0.0464341
1484.944,0.0279932,-0.0118629,-0.00457718,-0.0446919
1486.872,0.0291969,-0.0122876,-0.00693497,-0.042488
1488.801,0.0300713,-0.0127877,-0.00993732,-0.0402849
1490.729,0.0313664,-0.0132087,-0.0132306,-0.0375588
1492.658,0.0329972,-0.013521,-0.0166784,-0.0343404
1494.586,0.0335786,-0.0138405,-0.0203846,-0.0312489
1496.515,0.0337054,-0.0141341,-0.0243646,-0.0283566
1498.443,0.0341083,-0.0144344,-0.0286141,-0.0257898
1500.372,0.0309927,-0.0147756,-0.0330075,-0.0235952
1502.3,0.0309317,-0.0151239,-0.0374287,-0.0219724
1504.229,0.0311912,-0.0155146,-0.0417685,-0.0207478
1506.157,0.0325534,-0.0159506,-0.0458524,-0.0199561
1508.086,0.0343886,-0.0166821,-0.0502162,-0.020829
1510.014,0.0353671,-0.0177405,-0.0547562,-0.0232861
1511.943,0.0364809,-0.018846,-0.0586764,-0.0254792
1513.871,0.0378568,-0.0199687,-0.0619211,-0.0273447
1515.8,0.0398154,-0.0212046,-0.0647623,-0.0294372
1517.728,0.0418431,-0.0224833,-0.0670353,-0.0311944
1519.657,0.0440296,-0.0237677,-0.0688122,-0.0324702
1521.585,0.0454267,-0.0250516,-0.0703035,-0.0334184
1523.514,0.0467002,-0.0264095,-0.0718078,-0.0342013
1525.442,0.0488531,-0.027777,-0.0734066,-0.0348904
1527.371,0.0513844,-0.0291028,-0.0749624,-0.0350096
1529.299,0.0528287,-0.0303272,-0.0764603,-0.0343454
1531.228,0.0542571,-0.0314758,-0.0780911,-0.0331758
1533.156,0.0558411,-0.032604,-0.0799115,-0.0315308
1535.085,0.0579192,-0.0337743,-0.0820001,-0.0296526
1537.013,0.0591422,-0.034969,-0.0844194,-0.0279281
1538.942,0.06077,-0.0362384,-0.0871618,-0.026555
1540.87,0.0627694,-0.0375559,-0.0901228,-0.0258574
1542.799,0.065264,-0.0389179,-0.0930812,-0.0258432
1544.727,0.0689157,-0.0403479,-0.0958243,-0.0264416
1546.656,0.0712392,-0.0418551,-0.0984033,-0.0281722
1548.584,0.0731447,-0.0434031,-0.10074,-0.0312683
1550.513,0.0755045,-0.0450115,-0.102539,-0.0352151
1552.441,0.0784301,-0.0466125,-0.103653,-0.0398446
1554.37,0.0814344,-0.0482336,-0.104388,-0.0448607
1556.298,0.0839255,-0.0498635,-0.104671,-0.05083
1558.227,0.0863795,-0.0515875,-0.104502,-0.057538
1560.155,0.0900143,-0.0534241,-0.10364,-0.0640221
1562.084,0.0950427,-0.0553296,-0.101951,-0.069626
1564.012,0.0996972,-0.0572918,-0.0998134,-0.075084
1565.941,0.104882,-0.0593501,-0.0974194,-0.0805718
1567.869,0.110538,-0.0614552,-0.0946492,-0.0857386
1569.798,0.116384,-0.0635352,-0.0913662,-0.0899035
1571.726,0.122434,-0.0656625,-0.0880339,-0.0934815
1573.655,0.12747,-0.0678552,-0.0848962,-0.0964953
1575.583,0.133043,-0.0700095,-0.0819019,-0.0987428
1577.512,0.140053,-0.0721079,-0.0791335,-0.100277
1579.44,0.147956,-0.0741787,-0.0768246,-0.101457
1581.369,0.156117,-0.0761745,-0.0751284,-0.102235
1583.297,0.164936,-0.078076,-0.0740459,-0.102461
1585.226,0.174876,-0.0799293,-0.073851,-0.102229
1587.154,0.186272,-0.081759,-0.0746472,-0.101823
1589.083,0.199087,-0.0833734,-0.0761509,-0.100815
1591.011,0.213215,-0.0846615,-0.0784962,-0.100148
1592.94,0.229472,-0.0856183,-0.0816152,-0.100178
1594.868,0.247267,-0.0861309,-0.0850797,-0.100564
1596.797,0.267254,-0.0860969,-0.0885091,-0.101091
1598.725,0.290256,-0.0852212,-0.0913889,-0.101503
1600.654,0.316534,-0.0834259,-0.0936944,-0.10284
1602.582,0.345401,-0.0807675,-0.0951399,-0.105323
1604.511,0.375936,-0.0771164,-0.0950908,-0.107987
1606.439,0.410932,-0.0723713,-0.0931618,-0.110064
1608.368,0.449883,-0.0666886,-0.0894906,-0.1115
1610.296,0.490703,-0.060128,-0.0841494,-0.11233
1612.225,0.534984,-0.0529393,-0.0775441,-0.113284
1614.153,0.581636,-0.0453864,-0.0698304,-0.114127
1616.082,0.629813,-0.0376258,-0.0610467,-0.114133
1618.01,0.67982,-0.0299816,-0.0516219,-0.113232
1619.939,0.729948,-0.0227239,-0.0418911,-0.110805
1621.867,0.777969,-0.0161507,-0.0322363,-0.106431
1623.796,0.823452,-0.0106186,-0.0230165,-0.0998295
1625.724,0.865652,-0.00637945,-0.0145291,-0.0907673
1627.653,0.902989,-0.00362803,-0.0072727,-0.0797637
1629.581,0.933574,-0.0025752,-0.00172502,-0.0674618
1631.51,0.957281,-0.00335496,0.00200414,-0.0535941
1633.438,0.976892,-0.00603387,0.00396099,-0.0374798
1635.367,0.988613,-0.010576,0.00409688,-0.0192869
1637.295,0.99054,-0.0168848,0.00227086,6.7185e-05
1639.224,0.987321,-0.0248645,-0.00143421,0.0200489
1641.152,0.979909,-0.0342493,-0.00672575,0.0404734
1643.081,0.963628,-0.0448834,-0.0134328,0.0607772
1645.009,0.942407,-0.0564981,-0.0211533,0.0805898
1646.938,0.916078,-0.0686995,-0.0294158,0.0995439
1648.866,0.885843,-0.0812668,-0.0377761,0.117384
1650.795,0.85149,-0.0938732,-0.0457264,0.1337
1652.723,0.814919,-0.106082,-0.0529229,0.147603
1654.652,0.777812,-0.117677,-0.0590106,0.158877
1656.58,0.74036,-0.12838,-0.0636542,0.167272
1658.509,0.700646,-0.137947,-0.0665608,0.172691
1660.437,0.660758,-0.146246,-0.0675391,0.175212
1662.366,0.620728,-0.153189,-0.0665055,0.174883
1664.294,0.580225,-0.158775,-0.0635991,0.171588
1666.223,0.541719,-0.163035,-0.0588444,0.165818
1668.151,0.505199,-0.165948,-0.0524281,0.1578
1670.08,0.466835,-0.167608,-0.0445684,0.147971
1672.008,0.432034,-0.16819,-0.035499,0.136585
1673.937,0.397803,-0.167785,-0.0254844,0.12401
1675.865,0.365833,-0.166664,-0.0150271,0.110594
1677.794,0.335601,-0.164949,-0.00434456,0.0969146
1679.722,0.306675,-0.162628,0.00641195,0.0832967
1681.651,0.280475,-0.159937,0.0168072,0.0695841
1683.579,0.257962,-0.156939,0.0267224,0.0559788
1685.508,0.23567,-0.153559,0.0363805,0.0434133
1687.436,0.214976,-0.149997,0.0455362,0.0318535
1689.365,0.196212,-0.146371,0.0539724,0.0210995
1691.293,0.178504,-0.142703,0.0616874,0.0112007
1693.222,0.161555,-0.138993,0.0688348,0.00244493
1695.15,0.146988,-0.135232,0.0752506,-0.00582194
1697.079,0.134393,-0.131487,0.0809849,-0.0135063
1699.007,0.123379,-0.127824,0.0862274,-0.0204236
1700.936,0.11161,-0.124207,0.0911015,-0.0265622
1702.864,0.10136,-0.12051,0.0956679,-0.0320195
1704.793,0.092636,-0.116927,0.0994941,-0.0382644
1706.721,0.0848719,-0.11352,0.102733,-0.0452571
1708.65,0.0780437,-0.110128,0.105806,-0.0519784
1710.578,0.0724904,-0.10672,0.108826,-0.0580179
1712.507,0.0671142,-0.103345,0.111715,-0.0635319
1714.435,0.0626674,-0.0999886,0.114424,-0.0687668
1716.364,0.058382,-0.0966855,0.116885,-0.0739678
1718.292,0.0552476,-0.0934422,0.11925,-0.0787799
1720.221,0.0521391,-0.0902747,0.121449,-0.083365
1722.149,0.0486748,-0.0871628,0.123429,-0.0876259
1724.078,0.0456976,-0.0840115,0.125342,-0.0909327
1726.006,0.04292,-0.0808931,0.127065,-0.0933464
1727.935,0.0402064,-0.0778612,0.128684,-0.0945945
1729.863,0.0377771,-0.0748964,0.130206,-0.0947063
1731.792,0.034966,-0.0719958,0.131554,-0.0939707
1733.72,0.033087,-0.0691956,0.132633,-0.0924356
1735.649,0.0313623,-0.0665175,0.133289,-0.0899621
1737.577,0.0288176,-0.0639961,0.133546,-0.0858816
1739.506,0.0268399,-0.0616378,0.133275,-0.0806232
1741.434,0.0251231,-0.0593778,0.13231,-0.0747085
1743.363,0.0232684,-0.0571608,0.130773,-0.0677409
1745.291,0.0215459,-0.0549468,0.128662,-0.0597005
1747.22,0.0198545,-0.0528246,0.125642,-0.0513359
1749.148,0.018003,-0.0507537,0.121658,-0.0428605
1751.077,0.0164443,-0.0486833,0.116862,-0.0342089
1753.005,0.0151293,-0.0466653,0.111487,-0.0250478
1754.934,0.0132938,-0.0446219,0.105722,-0.0156849
1756.862,0.01204,-0.042541,0.0994425,-0.00712495
1758.791,0.0109424,-0.0404849,0.0927841,0.000698853
1760.719,0.0103291,-0.038365,0.0859395,0.00774504
1762.648,0.00988352,-0.0361825,0.079101,0.0140391
1764.576,0.00904675,-0.0340002,0.072363,0.0195097
1766.505,0.00822808,-0.0317874,0.0658658,0.0238167
1768.433,0.00781749,-0.0295359,0.060122,0.027165
1770.362,0.00696595,-0.0272699,0.0547248,0.0294718
1772.29,0.00648438,-0.0249975,0.0497211,0.0307364
1774.219,0.00607716,-0.0227289,0.0451456,0.0309809
1776.147,0.00509434,-0.0204758,0.0410206,0.0302498
1778.076,0.00410318,-0.0182513,0.0373558,0.0286088
1780.004,0.00334692,-0.0160697,0.0341489,0.0261433
1781.933,0.00267055,-0.0139465,0.0313856,0.0229562
1783.861,0.00183673,-0.0118977,0.0290407,0.0191658
1785.79,0.00104398,-0.00994002,0.0270793,0.014903
1787.718,0.000460944,-0.00809014,0.0254574,0.0103082
1789.647,-0.000422879,-0.0063646,0.024124,0.00552748
1791.575,-0.000450929,-0.00477936,0.0230227,0.000709053
1793.504,-0.000403987,-0.00334938,0.0220936,-0.00400149
1795.432,-0.000726775,-0.00208818,0.0212757,-0.00846575
1797.361,-0.00101968,-0.0010074,0.0205092,-0.0125577
1799.289,-0.00103731,-0.000116258,0.0197387,-0.0161694
1801.218,-0.000872673,0.000578927,0.0189155,-0.0192168
1803.146,-0.000580361,0.00107534,0.0180018,-0.0216462
1805.075,-0.000575606,0.00137423,0.0169735,-0.023441
1807.003,-0.000814808,0.00148154,0.0158241,-0.0246289
1808.932,-0.000868113,0.00140854,0.0145691,-0.0252898
1810.86,-0.00061075,0.00117254,0.0132497,-0.0255632
1812.789,-0.000525394,0.000797538,0.0119381,-0.0256571
1814.717,-0.000655385,0.000315023,0.0107414,-0.0258565
1816.646,-0.000744566,-0.000235307,0.0098072,-0.026533
1818.574,-0.000773539,-0.000804725,0.00932892,-0.0281537
1820.503,0.0,0.0,0.0,0.0
1822.431,0.0,0.0,0.0,0.0
1824.36,0.0,0.0,0.0,0.0
1826.288,0.0,0.0,0.0,0.0
1828.217,0.0,0.0,0.0,0.0
1830.145,0.0,0.0,0.0,0.0
1832.074,0.0,0.0,0.0,0.0
1834.002,0.0,0.0,0.0,0.0
1835.931,0.0,0.0,0.0,0.0
1837.859,0.0,0.0,0.0,0.0
1839.788,0.0,0.0,0.0,0.0
1841.716,0.0,0.0,0.0,0.0
1843.645,0.0,0.0,0.0,0.0
1845.573,0.0,0.0,0.0,0.0
1847.502,0.0,0.0,0.0,0.0
1849.43,0.0,0.0,0.0,0.0
1851.359,0.0,0.0,0.0,0.0
1853.287,0.0,0.0,0.0,0.0
1855.216,0.0,0.0,0.0,0.0
1857.144,0.0,0.0,0.0,0.0
1859.073,0.0,0.0,0.0,0.0
1861.001,0.0,0.0,0.0,0.0
1862.93,0.0,0.0,0.0,0.0
1864.858,0.0,0.0,0.0,0.0
1866.786,0.0,0.0,0.0,0.0
1868.715,0.0,0.0,0.0,0.0
1870.644,0.0,0.0,0.0,0.0
1872.572,0.0,0.0,0.0,0.0
1874.5,0.0,0.0,0.0,0.0
1876.429,0.0,0.0,0.0,0.0
1878.358,0.0,0.0,0.0,0.0
1880.286,0.0,0.0,0.0,0.0
1882.215,0.0,0.0,0.0,0.0
1884.143,0.0,0.0,0.0,0.0
1886.072,0.0,0.0,0.0,0.0
1888.0,0.0,0.0,0.0,0.0
1889.929,0.0,0.0,0.0,0.0
1891.857,0.0,0.0,0.0,0.0
1893.786,0.0,0.0,0.0,0.0
1895.714,0.0,0.0,0.0,0.0
1897.643,0.0,0.0,0.0,0.0
1899.571,0.0,0.0,0.0,0.0
1901.5,0.0,0.0,0.0,0.0
1903.428,0.0,0.0,0.0,0.0
1905.357,0.0,0.0,0.0,0.0
1907.285,0.0,0.0,0.0,0.0
1909.214,0.0,0.0,0.0,0.0
1911.142,0.0,0.0,0.0,0.0
1913.071,0.0,0.0,0.0,0.0
1914.999,0.0,0.0,0.0,0.0
1916.927,0.0,0.0,0.0,0.0
1918.856,0.0,0.0,0.0,0.0
1920.785,0.0,0.0,0.0,0.0
1922.713,0.0,0.0,0.0,0.0
1924.641,0.0,0.0,0.0,0.0
1926.57,0.0,0.0,0.0,0.0
1928.499,0.0,0.0,0.0,0.0
1930.427,0.0,0.0,0.0,0.0
1932.355,0.0,0.0,0.0,0.0
1934.284,0.0,0.0,0.0,0.0
1936.213,0.0,0.0,0.0,0.0
1938.141,0.0,0.0,0.0,0.0
1940.069,0.0,0.0,0.0,0.0
1941.998,0.0,0.0,0.0,0.0
1943.927,0.0,0.0,0.0,0.0
1945.855,0.0,0.0,0.0,0.0
1947.783,0.0,0.0,0.0,0.0
1949.712,0.0,0.0,0.0,0.0
1951.641,0.0,0.0,0.0,0.0
1953.569,0.0,0.0,0.0,0.0
1955.497,0.0,0.0,0.0,0.0
1957.426,0.0,0.0,0.0,0.0
1959.354,0.0,0.0,0.0,0.0
1961.283,0.0,0.0,0.0,0.0
1963.211,0.0,0.0,0.0,0.0
1965.14,0.0,0.0,0.0,0.0
1967.068,0.0,0.0,0.0,0.0
1968.997,0.0,0.0,0.0,0.0
1970.925,0.0,0.0,0.0,0.0
1972.854,0.0,0.0,0.0,0.0
1974.782,0.0,0.0,0.0,0.0
1976.711,0.0,0.0,0.0,0.0
1978.639,0.0,0.0,0.0,0.0
1980.568,0.0,0.0,0.0,0.0
1982.496,0.0,0.0,0.0,0.0
1984.425,0.0,0.0,0.0,0.0
1986.354,0.0,0.0,0.0,0.0
1988.282,0.0,0.0,0.0,0.0
1990.21,0.0,0.0,0.0,0.0
1992.139,0.0,0.0,0.0,0.0
1994.068,0.0,0.0,0.0,0.0
1995.996,0.0,0.0,0.0,0.0
1997.924,0.0,0.0,0.0,0.0
1999.853,0.0,0.0,0.0,0.0
2001.781,0.0,0.0,0.0,0.0
2003.71,0.0,0.0,0.0,0.0
2005.638,0.0,0.0,0.0,0.0
2007.567,0.0,0.0,0.0,0.0
2009.495,0.0,0.0,0.0,0.0
2011.424,0.0,0.0,0.0,0.0
2013.352,0.0,0.0,0.0,0.0
2015.281,0.0,0.0,0.0,0.0
2017.209,0.0,0.0,0.0,0.0
2019.138,0.0,0.0,0.0,0.0
2021.066,0.0,0.0,0.0,0.0
2022.995,0.0,0.0,0.0,0.0
2024.923,0.0,0.0,0.0,0.0
2026.852,0.0,0.0,0.0,0.0
2028.78,0.0,0.0,0.0,0.0
2030.709,0.0,0.0,0.0,0.0
2032.637,0.0,0.0,0.0,0.0
2034.566,0.0,0.0,0.0,0.0
2036.494,0.0,0.0,0.0,0.0
2038.423,0.0,0.0,0.0,0.0
2040.351,0.0,0.0,0.0,0.0
2042.28,0.0,0.0,0.0,0.0
2044.208,0.0,0.0,0.0,0.0
2046.137,0.0,0.0,0.0,0.0
2048.065,0.0,0.0,0.0,0.0
2049.994,0.0,0.0,0.0,0.0
2051.922,0.0,0.0,0.0,0.0
2053.851,0.0,0.0,0.0,0.0
2055.779,0.0,0.0,0.0,0.0
2057.708,0.0,0.0,0.0,0.0
2059.636,0.0,0.0,0.0,0.0
2061.565,0.0,0.0,0.0,0.0
2063.493,0.0,0.0,0.0,0.0
2065.422,0.0,0.0,0.0,0.0
2067.35,0.0,0.0,0.0,0.0
2069.279,0.0,0.0,0.0,0.0
2071.207,0.0,0.0,0.0,0.0
2073.136,0.0,0.0,0.0,0.0
2075.064,0.0,0.0,0.0,0.0
2076.993,0.0,0.0,0.0,0.0
2078.921,0.0,0.0,0.0,0.0
2080.85,0.0,0.0,0.0,0.0
2082.778,0.0,0.0,0.0,0.0
2084.707,0.0,0.0,0.0,0.0
2086.635,0.0,0.0,0.0,0.0
2088.564,0.0,0.0,0.0,0.0
2090.492,0.0,0.0,0.0,0.0
2092.421,0.0,0.0,0.0,0.0
2094.349,0.0,0.0,0.0,0.0
2096.278,0.0,0.0,0.0,0.0
2098.206,0.0,0.0,0.0,0.0
2100.135,0.0,0.0,0.0,0.0
2102.063,0.0,0.0,0.0,0.0
2103.992,0.0,0.0,0.0,0.0
2105.92,0.0,0.0,0.0,0.0
2107.849,0.0,0.0,0.0,0.0
2109.777,0.0,0.0,0.0,0.0
2111.706,0.0,0.0,0.0,0.0
2113.634,0.0,0.0,0.0,0.0
2115.563,0.0,0.0,0.0,0.0
2117.491,0.0,0.0,0.0,0.0
2119.42,0.0,0.0,0.0,0.0
2121.348,0.0,0.0,0.0,0.0
2123.277,0.0,0.0,0.0,0.0
2125.205,0.0,0.0,0.0,0.0
2127.134,0.0,0.0,0.0,0.0
2129.062,0.0,0.0,0.0,0.0
2130.991,0.0,0.0,0.0,0.0
2132.919,0.0,0.0,0.0,0.0
2134.848,0.0,0.0,0.0,0.0
2136.776,0.0,0.0,0.0,0.0
2138.705,0.0,0.0,0.0,0.0
2140.633,0.0,0.0,0.0,0.0
2142.562,0.0,0.0,0.0,0.0
2144.49,0.0,0.0,0.0,0.0
2146.419,0.0,0.0,0.0,0.0
2148.347,0.0,0.0,0.0,0.0
2150.276,0.0,0.0,0.0,0.0
2152.204,0.0,0.0,0.0,0.0
2154.133,0.0,0.0,0.0,0.0
2156.061,0.0,0.0,0.0,0.0
2157.99,0.0,0.0,0.0,0.0
2159.918,0.0,0.0,0.0,0.0
2161.847,0.0,0.0,0.0,0.0
2163.775,0.0,0.0,0.0,0.0
2165.704,0.0,0.0,0.0,0.0
2167.632,0.0,0.0,0.0,0.0
2169.561,0.0,0.0,0.0,0.0
2171.489,0.0,0.0,0.0,0.0
2173.418,0.0,0.0,0.0,0.0
2175.346,0.0,0.0,0.0,0.0
2177.275,0.0,0.0,0.0,0.0
2179.203,0.0,0.0,0.0,0.0
2181.132,0.0,0.0,0.0,0.0
2183.06,0.0,0.0,0.0,0.0
2184.989,0.0,0.0,0.0,0.0
2186.917,0.0,0.0,0.0,0.0
2188.846,0.0,0.0,0.0,0.0
2190.774,0.0,0.0,0.0,0.0
2192.703,0.0,0.0,0.0,0.0
2194.631,0.0,0.0,0.0,0.0
2196.56,0.0,0.0,0.0,0.0
2198.488,0.0,0.0,0.0,0.0
2200.417,0.0,0.0,0.0,0.0
2202.345,0.0,0.0,0.0,0.0
2204.274,0.0,0.0,0.0,0.0
2206.202,0.0,0.0,0.0,0.0
2208.131,0.0,0.0,0.0,0.0
2210.059,0.0,0.0,0.0,0.0
2211.988,0.0,0.0,0.0,0.0
2213.916,0.0,0.0,0.0,0.0
2215.845,0.0,0.0,0.0,0.0
2217.773,0.0,0.0,0.0,0.0
2219.702,0.0,0.0,0.0,0.0
2221.63,0.0,0.0,0.0,0.0
2223.559,0.0,0.0,0.0,0.0
2225.487,0.0,0.0,0.0,0.0
2227.416,0.0,0.0,0.0,0.0
2229.344,0.0,0.0,0.0,0.0
2231.273,0.0,0.0,0.0,0.0
2233.201,0.0,0.0,0.0,0.0
2235.13,0.0,0.0,0.0,0.0
2237.058,0.0,0.0,0.0,0.0
2238.987,0.0,0.0,0.0,0.0
2240.915,0.0,0.0,0.0,0.0
2242.844,0.0,0.0,0.0,0.0
2244.772,0.0,0.0,0.0,0.0
2246.701,0.0,0.0,0.0,0.0
2248.629,0.0,0.0,0.0,0.0
2250.558,0.0,0.0,0.0,0.0
2252.486,0.0,0.0,0.0,0.0
2254.415,0.0,0.0,0.0,0.0
2256.343,0.0,0.0,0.0,0.0
2258.272,0.0,0.0,0.0,0.0
2260.2,0.0,0.0,0.0,0.0
2262.129,0.0,0.0,0.0,0.0
2264.057,0.0,0.0,0.0,0.0
2265.986,0.0,0.0,0.0,0.0
2267.914,0.0,0.0,0.0,0.0
2269.843,0.0,0.0,0.0,0.0
2271.771,0.0,0.0,0.0,0.0
2273.7,0.0,0.0,0.0,0.0
2275.628,0.0,0.0,0.0,0.0
2277.557,0.0,0.0,0.0,0.0
2279.485,0.0,0.0,0.0,0.0
2281.414,0.0,0.0,0.0,0.0
2283.342,0.0,0.0,0.0,0.0
2285.271,0.0,0.0,0.0,0.0
2287.199,0.0,0.0,0.0,0.0
2289.128,0.0,0.0,0.0,0.0
2291.056,0.0,0.0,0.0,0.0
2292.985,0.0,0.0,0.0,0.0
2294.913,0.0,0.0,0.0,0.0
2296.842,0.0,0.0,0.0,0.0
2298.77,0.0,0.0,0.0,0.0
2300.699,0.0,0.0,0.0,0.0
2302.627,0.0,0.0,0.0,0.0
2304.556,0.0,0.0,0.0,0.0
2306.484,0.0,0.0,0.0,0.0
2308.413,0.0,0.0,0.0,0.0
2310.341,0.0,0.0,0.0,0.0
2312.27,0.0,0.0,0.0,0.0
2314.198,0.0,0.0,0.0,0.0
2316.127,0.0,0.0,0.0,0.0
2318.055,0.0,0.0,0.0,0.0
2319.984,0.0,0.0,0.0,0.0
2321.912,0.0,0.0,0.0,0.0
2323.841,0.0,0.0,0.0,0.0
2325.769,0.0,0.0,0.0,0.0
2327.698,0.0,0.0,0.0,0.0
2329.626,0.0,0.0,0.0,0.0
2331.555,0.0,0.0,0.0,0.0
2333.483,0.0,0.0,0.0,0.0
2335.412,0.0,0.0,0.0,0.0
2337.34,0.0,0.0,0.0,0.0
2339.269,0.0,0.0,0.0,0.0
2341.197,0.0,0.0,0.0,0.0
2343.126,0.0,0.0,0.0,0.0
2345.054,0.0,0.0,0.0,0.0
2346.983,0.0,0.0,0.0,0.0
2348.911,0.0,0.0,0.0,0.0