File: Glass FTIR Baseline Share With Sarah 2023/Dans_Examples/CL05MI02.csv
449.3401,1.283671
455.1256,1.271892
460.9111,1.14227
466.6966,1.11478
472.4821,1.14838
478.2676,1.08684
484.0531,1.06119
489.8386,0.9888507
495.6241,0.986466
501.4096,0.9044949
507.1951,0.915798
512.9806,0.884095
518.7661,0.866633
524.5516,0.8103008
530.3371,0.902789
536.1226,0.936998
541.9081,0.9677459
547.6935,0.721939
553.4791,0.579405
559.2646,0.666385
565.05,0.750388
570.8356,0.819712
576.621,0.947869
582.4066,1.03852
588.192,1.125475
593.9775,1.19574
599.7631,1.300527
605.5485,1.44071
611.334,1.32574
617.1195,1.92916
622.905,2.36231
628.6905,2.43896
634.476,2.20347
640.2615,1.97214
646.047,2.52126
651.8325,3.04122
657.618,3.33419
663.4035,3.463497
669.189,3.54192
674.9745,4.18694
680.7599,4.73014
686.5455,4.84849
692.3309,4.56872
698.1165,4.1799
703.902,4.48536
709.6874,4.38711
715.473,3.92687
721.2584,3.351382
727.0439,3.19759
732.8294,3.06781
738.6149,2.96205
744.4004,2.932425
750.1859,3.10493
755.9714,3.152092
761.7569,3.01714
767.5424,2.79912
773.3279,2.66209
779.1134,2.56664
784.8989,2.66604
790.6844,2.77886
796.4699,2.8008
802.2554,2.83941
808.0409,2.985302
813.8264,3.16897
819.6119,2.981389
825.3973,2.64242
831.1829,2.430657
836.9683,2.5693
842.7538,2.77848
848.5394,2.90136
854.3248,2.731405
860.1104,2.84689
865.8958,2.95327
871.6813,2.857119
877.4668,2.88706
883.2523,2.99367
889.0378,3.064143
894.8233,2.96154
900.6088,3.01069
906.3943,3.17806
912.1798,3.27047
917.9653,3.26397
923.7508,3.17507
929.5363,3.39869
935.3218,3.6737
941.1072,4.23261
946.8928,4.383933
952.6783,4.47782
958.4637,4.44522
964.2493,4.86001
970.0347,5.1007
975.8203,5.11197
981.6057,5.084372
987.3912,5.3429
993.1768,5.66942
998.9622,5.4986
1004.748,5.19844
1010.533,5.57527
1016.319,5.84982
1022.1,5.425927
1027.89,4.35289
1033.675,3.81891
1039.461,3.59792
1045.246,3.43302
1051.032,2.969075
1056.817,2.78204
1062.603,3.31033
1068.388,3.71037
1074.174,3.82354
1079.96,3.36355
1085.745,3.394
1091.53,3.46655
1097.316,3.81962
1103.101,3.57628
1108.887,3.551717
1114.672,3.37138
1120.458,3.3306
1126.243,3.05709
1132.029,2.92816
1137.81,3.07794
1143.6,3.135073
1149.385,3.08139
1155.171,2.87997
1160.96,2.85675
1166.742,2.84542
1172.527,2.8913
1178.313,2.95026
1184.098,2.97012
1189.884,2.96697
1195.67,2.98148
1201.455,3.0288
1207.24,3.02879
1213.026,3.04916
1218.81,2.992203
1224.597,2.82536
1230.382,2.4868
1236.167,2.18778
1241.953,1.95945
1247.739,1.813715
1253.524,1.71046
1259.31,1.6155
1265.095,1.52934
1270.88,1.441882
1276.67,1.35886
1282.452,1.28384
1288.237,1.21949
1294.022,1.16264
1299.808,1.11132
1305.594,1.067186
1311.379,1.028039
1317.164,0.9944427
1322.95,0.965397
1328.735,0.941084
1334.521,0.919971
1340.307,0.9022162
1346.092,0.8869228
1351.88,0.87413
1357.66,0.864072
1363.45,0.856527
1369.234,0.8515137
1375.019,0.848647
1380.805,0.846907
1386.59,0.846858
1392.376,0.8482608
1398.161,0.850812
1403.95,0.853286
1409.73,0.856052
1415.52,0.85809
1421.3,0.858555
1427.089,0.857094
1432.874,0.853594
1438.66,0.847787
1444.445,0.839579
1450.231,0.8281029
1456.016,0.815072
1461.8,0.801775
1467.59,0.790838
1473.37,0.7831235
1479.158,0.780273
1484.944,0.782617
1490.729,0.788039
1496.515,0.7946195
1502.3,0.8018428
1508.086,0.807003
1513.871,0.807565
1519.66,0.805288
1525.442,0.803034
1531.23,0.7975508
1537.013,0.787328
1542.799,0.776121
1548.58,0.768018
1554.37,0.760489
1560.155,0.751989
1565.941,0.744542
1571.726,0.739336
1577.51,0.736193
1583.297,0.738403
1589.08,0.7458601
1594.868,0.761235
1600.654,0.7857252
1606.44,0.8200825
1612.225,0.867985
1618.01,0.926327
1623.796,0.985708
1629.58,1.03035
1635.37,1.05265
1641.152,1.047804
1646.94,1.01789
1652.723,0.971489
1658.509,0.917992
1664.29,0.8632009
1670.08,0.810673
1675.865,0.762734
1681.651,0.719639
1687.44,0.685315
1693.22,0.655395
1699.007,0.631692
1704.793,0.6115
1710.578,0.59716
1716.364,0.584916
1722.149,0.574426
1727.935,0.56477
1733.72,0.557398
1739.506,0.5514774
1745.29,0.546565
1751.08,0.542251
1756.862,0.537383
1762.648,0.532019
1768.433,0.52704
1774.219,0.522346
1780.004,0.518053
1785.79,0.5137731
1791.575,0.509514
1797.361,0.505241
1803.146,0.500588
1808.932,0.4957483
1814.717,0.4911352
1820.503,0.48729
1826.29,0.4841
1832.07,0.480445
1837.859,0.475999
1843.645,0.470575
1849.43,0.465029
1855.22,0.459873
1861.001,0.456128
1866.786,0.452532
1872.57,0.448376
1878.358,0.443275
1884.14,0.437984
1889.93,0.432624
1895.714,0.427585
1901.5,0.422923
1907.285,0.418527
1913.07,0.413903
1918.856,0.408442
1924.641,0.402195
1930.43,0.395976
1936.213,0.39056
1942,0.385989
1947.783,0.381617
1953.569,0.377045
1959.354,0.371884
1965.14,0.36615
1970.925,0.360745
1976.711,0.356096
1982.496,0.352251
1988.28,0.348689
1994.068,0.345031
1999.85,0.34105
2005.638,0.33669
2011.424,0.332468
2017.21,0.328734
2022.995,0.325616
2028.78,0.3228546
2034.566,0.320285
2040.351,0.317408
2046.14,0.314194
2051.922,0.31106
2057.708,0.308662
2063.493,0.306857
2069.279,0.305235
2075.064,0.303546
2080.85,0.301744
2086.635,0.299672
2092.42,0.297587
2098.206,0.29572
2103.992,0.294357
2109.777,0.293554
2115.563,0.2928178
2121.348,0.2916654
2127.134,0.290115
2132.919,0.28873
2138.705,0.287674
2144.49,0.286961
2150.276,0.286734
2156.061,0.286699
2161.847,0.286475
2167.632,0.285921
2173.42,0.285261
2179.203,0.284663
2184.989,0.284698
2190.774,0.285136
2196.56,0.285733
2202.345,0.286064
2208.131,0.286175
2213.916,0.2861201
2219.702,0.28623
2225.487,0.286617
2231.27,0.2876268
2237.058,0.288533
2242.844,0.289426
2248.629,0.289902
2254.415,0.290341
2260.2,0.29068
2265.986,0.291391
2271.771,0.292494
2277.56,0.293663
2283.342,0.294788
2289.13,0.295471
2294.913,0.295998
2300.699,0.296583
2306.484,0.2971431
2312.27,0.298026
2318.055,0.298922
2323.841,0.299837
2329.626,0.300182
2335.41,0.300674
2341.197,0.30102
2346.98,0.301085
2352.768,0.300805
2358.554,0.300491
2364.339,0.301278
2370.125,0.302008
2375.91,0.3019974
2381.696,0.301105
2387.481,0.300348
2393.27,0.299934
2399.052,0.299582
2404.84,0.299338
2410.623,0.298933
2416.409,0.298118
2422.194,0.296963
2427.98,0.295608
2433.765,0.294503
2439.551,0.293444
2445.34,0.292355
2451.12,0.291144
2456.907,0.289876
2462.69,0.28864
2468.478,0.2874241
2474.264,0.286345
2480.049,0.285466
2485.834,0.284666
2491.62,0.284019
2497.406,0.2834664
2503.19,0.282964
2508.98,0.282568
2514.762,0.282597
2520.548,0.282697
2526.333,0.2831006
2532.119,0.283632
2537.904,0.2846459
2543.689,0.285866
2549.475,0.287201
2555.26,0.288785
2561.05,0.290398
2566.83,0.292419
2572.617,0.2948531
2578.403,0.297598
2584.188,0.300743
2589.973,0.304001
2595.759,0.307169
2601.544,0.310406
2607.33,0.313982
2613.115,0.317925
2618.901,0.322225
2624.687,0.326882
2630.472,0.331624
2636.258,0.336537
2642.04,0.341324
2647.828,0.346161
2653.614,0.351348
2659.4,0.357047
2665.185,0.362981
2670.97,0.368972
2676.756,0.375023
2682.542,0.381113
2688.327,0.387236
2694.112,0.393478
2699.9,0.40007
2705.683,0.407344
2711.469,0.414802
2717.25,0.422054
2723.04,0.4290934
2728.825,0.436376
2734.611,0.443816
2740.4,0.451514
2746.18,0.459701
2751.967,0.467923
2757.75,0.476113
2763.538,0.4845086
2769.324,0.492849
2775.11,0.501453
2780.895,0.510076
2786.68,0.519264
2792.466,0.5291049
2798.25,0.5385199
2804.04,0.5480033
2809.822,0.557159
2815.61,0.5666832
2821.393,0.576665
2827.179,0.5872318
2832.96,0.597953
2838.75,0.6080591
2844.535,0.618206
2850.321,0.628934
2856.11,0.640047
2861.89,0.651472
2867.677,0.662952
2873.46,0.674719
2879.248,0.686304
2885.034,0.697914
2890.82,0.7098807
2896.605,0.7222041
2902.39,0.734308
2908.176,0.746214
2913.961,0.758619
2919.75,0.771817
2925.532,0.785846
2931.32,0.799886
2937.103,0.81347
2942.889,0.8262489
2948.67,0.840217
2954.46,0.854455
2960.245,0.869809
2966.031,0.885041
2971.816,0.89978
2977.6,0.914255
2983.387,0.9281008
2989.173,0.94182
2994.958,0.9571692
3000.744,0.973478
3006.53,0.989858
3012.315,1.00524
3018.1,1.02064
3023.886,1.03621
3029.671,1.05294
3035.46,1.06938
3041.242,1.08688
3047.028,1.10352
3052.813,1.11996
3058.599,1.135691
3064.384,1.15291
3070.17,1.17127
3075.955,1.18922
3081.741,1.20652
3087.526,1.22465
3093.312,1.24387
3099.097,1.26124
3104.883,1.27869
3110.67,1.298123
3116.454,1.31968
3122.239,1.33861
3128.025,1.35783
3133.81,1.37628
3139.595,1.39641
3145.381,1.41499
3151.167,1.43445
3156.952,1.455999
3162.738,1.47523
3168.52,1.49592
3174.309,1.51926
3180.094,1.54245
3185.88,1.5614
3191.665,1.57381
3197.45,1.59324
3203.236,1.61469
3209.02,1.639367
3214.81,1.654819
3220.593,1.66847
3226.38,1.69091
3232.164,1.712221
3237.949,1.72408
3243.73,1.72953
3249.52,1.74361
3255.305,1.7708
3261.091,1.79303
3266.88,1.80697
3272.66,1.81277
3278.448,1.82199
3284.23,1.842
3290.02,1.86143
3295.804,1.8775
3301.59,1.89671
3307.375,1.92716
3313.16,1.944285
3318.946,1.95805
3324.73,1.97464
3330.52,2.00048
3336.302,2.01877
3342.09,2.03104
3347.873,2.046
3353.659,2.06881
3359.44,2.089376
3365.23,2.08764
3371.015,2.09761
3376.801,2.124369
3382.586,2.158956
3388.37,2.17351
3394.157,2.16129
3399.94,2.16138
3405.728,2.17604
3411.514,2.1952
3417.3,2.20483
3423.085,2.23151
3428.87,2.27922
3434.656,2.29105
3440.441,2.266626
3446.23,2.26032
3452.012,2.29473
3457.798,2.32804
3463.583,2.3487
3469.369,2.35648
3475.15,2.33286
3480.94,2.32337
3486.725,2.308192
3492.511,2.32624
3498.296,2.35141
3504.08,2.37819
3509.867,2.36454
3515.653,2.33158
3521.438,2.33429
3527.224,2.36052
3533.009,2.38154
3538.795,2.37472
3544.58,2.3803
3550.366,2.3471
3556.151,2.32284
3561.937,2.29534
3567.722,2.289745
3573.508,2.2645
3579.29,2.24039
3585.079,2.17589
3590.864,2.135329
3596.65,2.06084
3602.435,1.99211
3608.22,1.87246
3614.006,1.74876
3619.792,1.634773
3625.577,1.51417
3631.363,1.38574
3637.15,1.25346
3642.934,1.12482
3648.719,0.999133
3654.505,0.880757
3660.29,0.778831
3666.08,0.692186
3671.861,0.612785
3677.647,0.545273
3683.43,0.491553
3689.218,0.447637
3695,0.409791
3700.789,0.378827
3706.574,0.353265
3712.36,0.331009
3718.145,0.31269
3723.93,0.298333
3729.716,0.286475
3735.502,0.2773
3741.29,0.2698331
3747.073,0.26364
3752.86,0.258627
3758.64,0.255641
3764.429,0.2537907
3770.215,0.251521
3776.0,0.250006
3781.79,0.248284
3787.571,0.245829
3793.36,0.24323
3799.14,0.241384
3804.927,0.240242
3810.71,0.239635
3816.5,0.238378
3822.284,0.237601
3828.07,0.236615
3833.855,0.235588
3839.64,0.233781
3845.426,0.231972
3851.211,0.231605
3857,0.2320013
3862.782,0.232519
3868.57,0.232142
3874.35,0.230527
3880.139,0.229255
3885.925,0.2287899
3891.71,0.228601
3897.495,0.2283617
3903.281,0.228343
3909.066,0.228199
3914.85,0.2277145
3920.637,0.226458
3926.423,0.225416
3932.208,0.224857
3937.994,0.225142
3943.78,0.225431
3949.565,0.225197
3955.35,0.2243211
3961.136,0.222894
3966.921,0.22197
3972.71,0.221527
3978.492,0.221424
3984.278,0.2215
3990.063,0.221362
3995.849,0.2207563
4001.634,0.219674
4007.42,0.218517
4013.205,0.217824
4018.991,0.217561
4024.776,0.217363
4030.562,0.2171404
4036.347,0.2167325
4042.133,0.215957
4047.92,0.21447
4053.704,0.213059
4059.489,0.212135
4065.275,0.2121076
4071.06,0.2122232
4076.85,0.212022
4082.631,0.210562
4088.417,0.209026
4094.202,0.207729
4099.988,0.207152
4105.773,0.206819
4111.559,0.206703
4117.344,0.206758
4123.13,0.2059361
4128.916,0.204938
4134.701,0.2038997
4140.486,0.202981
4146.272,0.202446
4152.057,0.202251
4157.843,0.2021036
4163.628,0.201858
4169.41,0.20125
4175.2,0.200368
4180.985,0.199197
4186.77,0.198347
4192.556,0.198379
4198.34,0.198872
4204.127,0.199139
4209.912,0.198515
4215.698,0.197641
4221.483,0.196666
4227.269,0.196227
4233.054,0.195879
4238.84,0.196173
4244.625,0.196527
4250.411,0.19694
4256.196,0.196927
4261.982,0.196212
4267.767,0.195494
4273.553,0.195155
4279.338,0.195705
4285.124,0.196239
4290.91,0.196402
4296.695,0.196409
4302.48,0.196194
4308.266,0.196296
4314.05,0.196277
4319.84,0.196747
4325.622,0.197301
4331.41,0.197911
4337.193,0.198314
4342.979,0.198598
4348.764,0.199116
4354.55,0.1997006
4360.335,0.200519
4366.121,0.200964
4371.906,0.201486
4377.691,0.202242
4383.477,0.20295
4389.263,0.2036379
4395.048,0.204288
4400.833,0.204811
4406.62,0.205372
4412.405,0.206109
4418.19,0.206617
4423.976,0.207074
4429.76,0.20794
4435.55,0.208492
4441.332,0.209171
4447.12,0.209675
4452.903,0.210172
4458.688,0.210532
4464.474,0.210963
4470.26,0.212057
4476.045,0.212441
4481.831,0.212462
4487.616,0.212527
4493.401,0.2132506
4499.187,0.213664
4504.973,0.213618
4510.758,0.213368
4516.543,0.2129589
4522.33,0.212503
4528.11,0.212171
4533.9,0.211988
4539.686,0.211375
4545.471,0.211303
4551.26,0.2104722
4557.042,0.209853
4562.83,0.2093954
4568.613,0.209075
4574.398,0.2084071
4580.184,0.2077363
4585.969,0.207812
4591.755,0.207538
4597.541,0.207158
4603.326,0.207769
4609.111,0.208244
4614.897,0.207669
4620.683,0.207433
4626.468,0.2076989
4632.253,0.208313
4638.04,0.208556
4643.82,0.2088436
4649.61,0.20946
4655.396,0.2093971
4661.181,0.2099515
4666.97,0.210358
4672.752,0.2109802
4678.538,0.211575
4684.323,0.212157
4690.108,0.212506
4695.894,0.212907
4701.679,0.213307
4707.465,0.213496
4713.25,0.214299
4719.036,0.215319
4724.821,0.215843
4730.607,0.216082
4736.392,0.216805
4742.178,0.217975
4747.963,0.2185925
4753.749,0.218808
4759.53,0.2193775
4765.32,0.219984
4771.105,0.220949
4776.891,0.221694
4782.68,0.222156
4788.462,0.222722
4794.247,0.2233099
4800.03,0.224272
4805.818,0.225201
4811.604,0.225788
4817.389,0.226551
4823.175,0.227195
4828.96,0.2279607
4834.746,0.2285195
4840.531,0.228937
4846.317,0.229639
4852.102,0.230481
4857.888,0.23154
4863.673,0.232268
4869.458,0.2328053
4875.24,0.233286
4881.03,0.2340977
4886.815,0.235408
4892.601,0.236321
4898.39,0.237105
4904.17,0.237169
4909.957,0.237877
4915.74,0.239127
4921.528,0.2405785
4927.313,0.241003
4933.099,0.2414872
4938.885,0.242564
4944.67,0.243808
4950.456,0.244635
4956.241,0.245491
4962.027,0.246403
4967.812,0.247123
4973.598,0.248056
4979.383,0.249198
4985.168,0.249838
4990.95,0.250271
4996.74,0.251215
5002.525,0.25219
5008.311,0.252693
5014.096,0.253284
5019.88,0.254309
5025.667,0.255069
5031.45,0.2561291
5037.238,0.2573576
5043.023,0.258792
5048.809,0.259155
5054.595,0.259251
5060.38,0.260342
5066.166,0.262236
5071.951,0.263208
5077.736,0.264015
5083.522,0.264457
5089.308,0.265462
5095.093,0.266019
5100.878,0.266688
5106.66,0.2675617
5112.45,0.268567
5118.235,0.269568
5124.021,0.270792
5129.806,0.271371
5135.59,0.272752
5141.377,0.2743775
5147.163,0.275798
5152.948,0.276964
5158.733,0.277317
5164.519,0.278234
5170.305,0.27924
5176.09,0.2811376
5181.875,0.281668
5187.661,0.28176
5193.446,0.281438
5199.232,0.2827516
5205.018,0.284202
5210.803,0.284658
5216.588,0.285423
5222.374,0.286115
5228.16,0.287496
5233.945,0.287005
5239.73,0.2862693
5245.516,0.28588
5251.3,0.284989
5257.09,0.285651
5262.87,0.285531
5268.658,0.285471
5274.443,0.28474
5280.229,0.285258
5286.014,0.2857341
5291.8,0.285728
5297.585,0.285453
5303.371,0.285878
5309.156,0.286105
5314.94,0.286313
5320.728,0.287147
5326.51,0.288443
5332.3,0.288786
5338.084,0.290207
5343.87,0.291837
5349.655,0.291794
5355.44,0.290951
5361.226,0.290202
5367.01,0.29064
5372.797,0.292422
5378.58,0.293177
5384.368,0.293916
5390.153,0.294359
5395.939,0.295463
5401.724,0.295999
5407.51,0.296406
5413.295,0.296934
5419.081,0.296486
5424.866,0.2966349
5430.65,0.2967933
5436.438,0.298095
5442.22,0.298745
5448.01,0.298695
5453.794,0.297828
5459.58,0.298473
5465.365,0.300759
5471.15,0.301241
5476.936,0.300919
5482.721,0.3005487
5488.507,0.300943
5494.29,0.301614
5500.078,0.301662
5505.863,0.301438
5511.649,0.302561
5517.434,0.3030804
5523.22,0.303702
5529.005,0.304002
5534.791,0.30372
5540.576,0.303166
5546.36,0.303131
5552.147,0.304831
5557.93,0.306197
5563.72,0.3059619
5569.504,0.30511
5575.29,0.305222
5581.075,0.305846
5586.86,0.30606
5592.646,0.305749
5598.431,0.305994
5604.217,0.307054
5610,0.307523
5615.79,0.307004
5621.573,0.3066
5627.358,0.306855
5633.144,0.306678
5638.93,0.306917
5644.715,0.307332
5650.5,0.308666
5656.286,0.309148
5662.07,0.308594
5667.857,0.30852
5673.643,0.308495
5679.43,0.309595
5685.21,0.309866
5690.999,0.309913
5696.785,0.310263
5702.57,0.310609
5708.355,0.310601
5714.141,0.309861
5719.927,0.30981
5725.71,0.310016
5731.5,0.3097902
5737.283,0.309992
5743.068,0.310483
5748.854,0.310858
5754.64,0.310691
5760.425,0.310332
5766.21,0.309912
5771.996,0.310083
5777.78,0.3106281
5783.57,0.31089
5789.353,0.310983
5795.14,0.310026
5800.92,0.309777
5806.709,0.309536
5812.495,0.310585
5818.28,0.310432
5824.065,0.310838
5829.851,0.310509
5835.637,0.310256
5841.422,0.310451
5847.21,0.310506
5852.993,0.3102128
5858.778,0.309985
5864.564,0.309125
5870.35,0.309832
5876.135,0.310235
5881.92,0.309468
5887.706,0.3095783
5893.491,0.3096231
5899.28,0.309506
5905.063,0.308981
5910.85,0.308692
5916.63,0.3089073
5922.419,0.3093789
5928.205,0.309403
5933.99,0.3111621
5939.775,0.3114029
5945.561,0.309437
5951.346,0.307242
5957.132,0.3068037
5962.92,0.3084963
5968.703,0.309605
5974.488,0.309607
5980.274,0.309827
5986.06,0.309555
5991.845,0.309045
5997.63,0.3073942
6003.416,0.306198
6009.201,0.3064721
6014.99,0.307006
6020.772,0.306646
6026.56,0.3071185
6032.34,0.3059465
6038.129,0.306026
6043.915,0.305546
6049.7,0.305233
6055.485,0.305621
6061.271,0.305452
6067.056,0.30558
6072.842,0.3047497
6078.63,0.3043905
6084.41,0.304436
6090.198,0.303402
6095.984,0.303851
6101.769,0.305729
6107.555,0.305966
6113.34,0.304174
6119.126,0.302486
6124.911,0.301522
6130.7,0.302393
6136.482,0.303247
6142.268,0.303877
6148.05,0.30419
6153.839,0.30305
6159.624,0.302525
6165.41,0.3018634
6171.195,0.302348
6176.981,0.302639
6182.766,0.302648
6188.552,0.300654
6194.34,0.298954
6200.12,0.299107
6205.908,0.300267
6211.694,0.300276
6217.479,0.30102
6223.265,0.301645
6229.05,0.301363
6234.835,0.299749
6240.621,0.2982377
6246.41,0.298058
6252.19,0.298042
6257.978,0.298436
6263.76,0.2992203
6269.549,0.299351
6275.334,0.298693
6281.12,0.29684
6286.905,0.296626
6292.69,0.2976532
6298.476,0.2985483
6304.262,0.296859
6310.047,0.295896
6315.83,0.296011
6321.618,0.295976
6327.404,0.296058
6333.189,0.295887
6338.975,0.298231
6344.76,0.298643
6350.545,0.298743
6356.331,0.297308
6362.12,0.295413
6367.9,0.295037
6373.688,0.2957791
6379.47,0.295951
6385.259,0.29565
6391.044,0.293988
6396.83,0.2943007
6402.615,0.293897
6408.4,0.293558
6414.186,0.2959186
6419.972,0.296154
6425.757,0.296257
6431.54,0.29372
6437.328,0.29352
6443.113,0.293568
6448.899,0.294519
6454.685,0.294621
6460.47,0.294242
6466.255,0.294673
6472.041,0.2936942
6477.83,0.293876
6483.61,0.294346
6489.397,0.294136
6495.18,0.294177
6500.97,0.2932
6506.754,0.29327
6512.54,0.2927
6518.325,0.292412
6524.11,0.2927376
6529.896,0.294211
6535.682,0.294778
6541.467,0.293311
6547.25,0.293813
6553.04,0.292974
6558.823,0.293221
6564.609,0.294
6570.395,0.297308
6576.18,0.298874
6581.965,0.297338
6587.751,0.295165
6593.54,0.296719
6599.32,0.297158
6605.107,0.297987
6610.893,0.296365
6616.68,0.296609
6622.464,0.298466
6628.25,0.298445
6634.035,0.2992534
6639.82,0.297351
6645.606,0.2933691
6651.391,0.2933538
6657.177,0.295281
6662.96,0.299396
6668.75,0.297573
6674.533,0.298151
6680.319,0.2972124
6686.104,0.296369
6691.89,0.2959208
6697.675,0.2958367
6703.46,0.297842
6709.246,0.300013
6715.03,0.300918
6720.82,0.298376
6726.603,0.298105
6732.39,0.300772
6738.174,0.301937
6743.959,0.302515
6749.745,0.303172
6755.53,0.301222
6761.316,0.3020541
6767.101,0.3023039
6772.887,0.301414
6778.672,0.30012
6784.46,0.300061
6790.243,0.302638
6796.029,0.303791
6801.814,0.303174
6807.6,0.303633
6813.385,0.3039788
6819.17,0.304823
6824.956,0.302669
6830.74,0.300459
6836.53,0.301786
6842.313,0.30543
6848.1,0.306244
6853.884,0.305365
6859.669,0.304683
6865.455,0.305606
6871.24,0.306597
6877.026,0.307062
6882.811,0.306827
6888.597,0.307615
6894.382,0.311254
6900.17,0.313012
6905.953,0.313285
6911.74,0.313476
6917.524,0.314069
6923.31,0.315807
6929.095,0.314974
6934.88,0.316813
6940.666,0.316062
6946.45,0.317091
6952.24,0.317098
6958.022,0.318244
6963.81,0.316627
6969.594,0.316651
6975.379,0.319957
6981.165,0.3237947
6986.95,0.3216621
6992.735,0.320627
6998.521,0.320322
7004.307,0.321637
7010.092,0.321734
7015.88,0.3263643
7021.66,0.328822
7027.45,0.3305226
7033.234,0.330245
7039.02,0.329336
7044.805,0.326859
7050.59,0.327143
7056.376,0.329639
7062.16,0.333758
7067.95,0.334557
7073.732,0.333584
7079.518,0.335556
7085.304,0.3351976
7091.089,0.334401
7096.875,0.3318635
7102.66,0.333496
7108.445,0.3357825
7114.231,0.336095
7120.017,0.3361274
7125.802,0.339562
7131.59,0.340483
7137.37,0.338682
7143.16,0.338337
7148.944,0.337991
7154.729,0.337984
7160.515,0.340993
7166.3,0.340735
7172.09,0.340096
7177.87,0.340206
7183.66,0.3432
7189.44,0.345516
7195.228,0.347097
7201.01,0.3479966
7206.799,0.342844
7212.584,0.341567
7218.37,0.340511
7224.155,0.3410509
7229.941,0.345746
7235.727,0.352762
7241.512,0.357358
7247.297,0.3577351
7253.08,0.359936
7258.868,0.3590639
7264.654,0.36087
7270.439,0.363949
7276.225,0.363816
7282.01,0.36276
7287.8,0.359966
7293.58,0.363988
7299.37,0.368235
7305.15,0.366277
7310.938,0.372567
7316.72,0.373417
7322.509,0.37435
7328.294,0.367132
7334.08,0.3693938
7339.865,0.37535
7345.651,0.384778
7351.437,0.384488
7357.222,0.379216
7363.007,0.375322
7368.79,0.373606
7374.578,0.382756
7380.36,0.388176
7386.149,0.38765
7391.935,0.383896
7397.72,0.3845428
7403.51,0.38082
7409.291,0.379658
7415.08,0.382363
7420.86,0.392409
7426.648,0.3877142
7432.43,0.382199
7438.219,0.3785086
7444.004,0.382435
7449.79,0.386551
7455.575,0.38552
7461.361,0.386629
7467.146,0.39167
7472.932,0.400678
7478.717,0.401744
7484.5,0.399611
7490.29,0.400266
7496.07,0.399513
7501.859,0.39666
7507.645,0.403097
7513.43,0.405297
7519.22,0.410168
7525.001,0.408231
7530.79,0.416763
7536.57,0.414357
7542.357,0.416009
7548.143,0.417143
7553.929,0.414434
7559.714,0.411526
7565.5,0.405061
7571.285,0.40758
7577.071,0.408009
7582.856,0.399644
7588.642,0.403717
7594.427,0.4190954
7600.21,0.426655
7606,0.42265
7611.78,0.422978
7617.569,0.431099
7623.354,0.4323934
7629.14,0.432527
7634.93,0.419975
7640.71,0.415374
7646.5,0.4224983
7652.28,0.4324061
7658.07,0.430538
7663.853,0.425722
7669.639,0.432074
7675.424,0.435571
7681.209,0.439003
7686.995,0.439949
7692.781,0.443171
7698.566,0.441296
7704.352,0.434444
7710.137,0.42299
7715.922,0.419428
7721.71,0.43271
7727.49,0.453479
7733.279,0.467697
7739.064,0.459992
7744.85,0.452666
7750.635,0.449381
7756.42,0.453101
7762.21,0.4521466
7767.99,0.451895
7773.78,0.4727498
7779.563,0.483039
7785.349,0.478265
7791.134,0.459694
7796.919,0.457542
7802.705,0.45738
7808.49,0.46949
7814.276,0.470907
7820.062,0.4735003
7825.847,0.459898
7831.632,0.455567
7837.42,0.4521
7843.2,0.465451
7848.99,0.462054
7854.774,0.461156
7860.56,0.45566
7866.345,0.455576
7872.13,0.467832
7877.92,0.48053
7883.7,0.484589
7889.49,0.488237
7895.273,0.488936
7901.059,0.507935
7906.844,0.499445
7912.629,0.478524
7918.415,0.468328
7924.2,0.490093
7929.986,0.525014
7935.771,0.515301
7941.557,0.502801
7947.342,0.494547
7953.13,0.494078
7958.91,0.507091
7964.7,0.52382
7970.484,0.53947
7976.27,0.538803
7982.055,0.5373816
7987.84,0.5390673
7993.626,0.541027
7999.41,0.539204
8005.2,0.54295
8010.983,0.514136
8016.768,0.496135
8022.554,0.4692542
8028.339,0.461984
8034.125,0.4811396
8039.91,0.506744
8045.696,0.533651
8051.481,0.523863
8057.267,0.498603
8063.052,0.491423
8068.84,0.524923
8074.62,0.548218
8080.41,0.54994
8086.194,0.530981
8091.979,0.526546
8097.765,0.536789
8103.55,0.519902
8109.34,0.508266
8115.12,0.519309
8120.91,0.559101
8126.693,0.563865
8132.478,0.5540506
8138.264,0.5315709
8144.049,0.535007
8149.834,0.517125
8155.62,0.5563035
8161.406,0.558557
8167.191,0.589198
8172.977,0.602983
8178.762,0.585444
8184.55,0.533528
8190.33,0.543548
8196.118,0.580188
8201.904,0.555156
8207.689,0.544671
8213.476,0.5436983
8219.261,0.54
8225.046,0.549816
8230.832,0.610856
8236.617,0.6253143
8242.402,0.575119
8248.188,0.549814
8253.974,0.574937
8259.759,0.588
8265.545,0.6418433
8271.33,0.597393
8277.115,0.603643
8282.901,0.56929
8288.687,0.573828
8294.472,0.619843
8300.258,0.64407
8306.043,0.590756
8311.83,0.48577
8317.614,0.503644
8323.399,0.5822077
8329.185,0.649632
8334.971,0.654855
8340.756,0.667949
8346.542,0.661132
8352.327,0.629298
8358.112,0.6168232
8363.9,0.662731
8369.68,0.541456
8375.47,0.933995
8381.255,1.06895
8387.04,0.875629
8392.825,0.728045
8398.61,0.924586
8404.396,1.24738
8410.18,1.21145
8415.968,1.01835
8421.753,0.625497
8427.538,0.568333
8433.324,0.663753
8439.109,1.21872
8444.895,1.271925
8450.681,1.25802
8456.466,0.945769
8462.251,0.994137
8468.037,1.15057
8473.822,1.52377
8479.608,1.63056
8485.394,1.39892
8491.179,1.01219
8496.965,1.22609
8500.821,0.5462117