File: Glass FTIR Baseline Share With Sarah 2023/Dans_Examples/CL05MI08.csv
449.3401,2.794
455.1256,4.35139
460.9111,3.74152
466.6966,3.25263
472.4821,2.27625
478.2676,0.833084
484.0531,1.06
489.8386,1.51973
495.6241,1.858561
501.4096,2.13392
507.1951,2.32964
512.9806,1.90703
518.7661,1.045204
524.5516,1.06722
530.3371,0.284073
536.1226,0.595148
541.9081,1.01013
547.6935,0.8266653
553.4791,1.10477
559.2646,1.22299
565.05,0.748282
570.8356,0.5459536
576.621,1.67316
582.4066,2.33517
588.192,2.41508
593.9775,2.0317
599.7631,1.49413
605.5485,2.59557
611.334,2.85065
617.1195,3.677515
622.905,3.90538
628.6905,3.35021
634.476,2.10133
640.2615,2.58988
646.047,3.26495
651.8325,3.669326
657.618,2.81971
663.4035,3.58427
669.189,4.18975
674.9745,4.37422
680.7599,4.11111
686.5455,3.88101
692.3309,4.14833
698.1165,5.186322
703.902,4.61222
709.6874,3.94395
715.473,3.86284
721.2584,4.46387
727.0439,4.59007
732.8294,4.83967
738.6149,4.706829
744.4004,4.48152
750.1859,4.03235
755.9714,4.3187
761.7569,4.136817
767.5424,3.61874
773.3279,3.693308
779.1134,3.7291
784.8989,3.97103
790.6844,3.42501
796.4699,3.62969
802.2554,3.85505
808.0409,3.65541
813.8264,3.51771
819.6119,3.69141
825.3973,3.82844
831.1829,3.25226
836.9683,2.84424
842.7538,3.28373
848.5394,4.02905
854.3248,4.08016
860.1104,3.60402
865.8958,3.42362
871.6813,3.20708
877.4668,3.136348
883.2523,3.02598
889.0378,3.86763
894.8233,3.99594
900.6088,3.619695
906.3943,3.47818
912.1798,3.35342
917.9653,3.1342
923.7508,3.20195
929.5363,3.9135
935.3218,4.94669
941.1072,5.4194
946.8928,4.74645
952.6783,4.41934
958.4637,4.061578
964.2493,4.48548
970.0347,4.36179
975.8203,4.29602
981.6057,4.15629
987.3912,3.64967
993.1768,3.92568
998.9622,4.046898
1004.748,4.617
1010.533,4.8597
1016.319,4.35447
1022.1,3.84548
1027.89,3.46501
1033.675,2.99391
1039.461,2.73847
1045.246,2.71157
1051.032,2.4396
1056.817,2.51526
1062.603,2.917216
1068.388,3.07951
1074.174,3.245324
1079.96,2.84624
1085.745,2.675144
1091.53,2.44869
1097.316,2.40898
1103.101,2.242137
1108.887,2.2463
1114.672,2.25679
1120.458,2.29515
1126.243,2.27099
1132.029,2.250083
1137.81,2.21032
1143.6,2.23133
1149.385,2.20573
1155.171,2.17643
1160.96,2.08654
1166.742,2.04441
1172.527,2.085922
1178.313,2.101047
1184.098,2.10924
1189.884,2.10048
1195.67,2.08051
1201.455,2.0557
1207.24,2.0438
1213.026,2.000123
1218.81,1.90541
1224.597,1.74525
1230.382,1.58165
1236.167,1.4157
1241.953,1.279358
1247.739,1.17351
1253.524,1.08648
1259.31,1.01604
1265.095,0.9589351
1270.88,0.9155707
1276.67,0.878577
1282.452,0.844597
1288.237,0.814494
1294.022,0.7903335
1299.808,0.771702
1305.594,0.752819
1311.379,0.735898
1317.164,0.7195383
1322.95,0.705112
1328.735,0.691554
1334.521,0.681729
1340.307,0.6734382
1346.092,0.6666805
1351.88,0.660188
1357.66,0.653709
1363.45,0.647921
1369.234,0.643942
1375.019,0.640725
1380.805,0.637908
1386.59,0.635487
1392.376,0.6354329
1398.161,0.636602
1403.95,0.638218
1409.73,0.6381
1415.52,0.636721
1421.3,0.635461
1427.089,0.634474
1432.874,0.6335397
1438.66,0.629527
1444.445,0.624135
1450.231,0.617691
1456.016,0.6108985
1461.8,0.603689
1467.59,0.596628
1473.37,0.592328
1479.158,0.58988
1484.944,0.591294
1490.729,0.593008
1496.515,0.595152
1502.3,0.599019
1508.086,0.605535
1513.871,0.610302
1519.66,0.610969
1525.442,0.609363
1531.23,0.606387
1537.013,0.603059
1542.799,0.597234
1548.58,0.5923745
1554.37,0.589262
1560.155,0.587462
1565.941,0.586588
1571.726,0.58801
1577.51,0.593736
1583.297,0.601472
1589.08,0.6105594
1594.868,0.622941
1600.654,0.64332
1606.44,0.671235
1612.225,0.7103204
1618.01,0.758878
1623.796,0.8086555
1629.58,0.846317
1635.37,0.865012
1641.152,0.864563
1646.94,0.848869
1652.723,0.817899
1658.509,0.778066
1664.29,0.732487
1670.08,0.6899674
1675.865,0.6489922
1681.651,0.609944
1687.44,0.578307
1693.22,0.5525321
1699.007,0.532929
1704.793,0.516979
1710.578,0.505289
1716.364,0.495721
1722.149,0.4866218
1727.935,0.479022
1733.72,0.474003
1739.506,0.4687427
1745.29,0.46441
1751.08,0.4594714
1756.862,0.456207
1762.648,0.453003
1768.433,0.450852
1774.219,0.44917
1780.004,0.447819
1785.79,0.446483
1791.575,0.4443985
1797.361,0.443117
1803.146,0.442517
1808.932,0.441853
1814.717,0.440959
1820.503,0.438896
1826.29,0.435668
1832.07,0.43175
1837.859,0.4283804
1843.645,0.425707
1849.43,0.424275
1855.22,0.423234
1861.001,0.4222785
1866.786,0.420974
1872.57,0.4190651
1878.358,0.416348
1884.14,0.412441
1889.93,0.407751
1895.714,0.4033724
1901.5,0.398783
1907.285,0.394516
1913.07,0.390488
1918.856,0.387733
1924.641,0.384942
1930.43,0.382074
1936.213,0.378471
1942,0.375039
1947.783,0.3714329
1953.569,0.367289
1959.354,0.3627646
1965.14,0.358781
1970.925,0.354977
1976.711,0.351117
1982.496,0.347568
1988.28,0.345066
1994.068,0.342746
1999.85,0.340546
2005.638,0.338928
2011.424,0.3373687
2017.21,0.335176
2022.995,0.332643
2028.78,0.331389
2034.566,0.330033
2040.351,0.3282622
2046.14,0.326312
2051.922,0.32434
2057.708,0.322863
2063.493,0.321754
2069.279,0.3213396
2075.064,0.3212542
2080.85,0.3214828
2086.635,0.321687
2092.42,0.321874
2098.206,0.3223394
2103.992,0.322772
2109.777,0.323101
2115.563,0.322869
2121.348,0.3217439
2127.134,0.320099
2132.919,0.319161
2138.705,0.318804
2144.49,0.31929
2150.276,0.319932
2156.061,0.321392
2161.847,0.3228023
2167.632,0.322629
2173.42,0.3218093
2179.203,0.3205706
2184.989,0.3198409
2190.774,0.318589
2196.56,0.3174048
2202.345,0.316328
2208.131,0.316066
2213.916,0.316405
2219.702,0.316865
2225.487,0.316789
2231.27,0.31662
2237.058,0.316601
2242.844,0.315944
2248.629,0.3151964
2254.415,0.314131
2260.2,0.313515
2265.986,0.313387
2271.771,0.313323
2277.56,0.3136
2283.342,0.31424
2289.13,0.31486
2294.913,0.315176
2300.699,0.314518
2306.484,0.314259
2312.27,0.314466
2318.055,0.314775
2323.841,0.3142449
2329.626,0.314625
2335.41,0.315855
2341.197,0.317752
2346.98,0.318098
2352.768,0.317852
2358.554,0.318708
2364.339,0.318866
2370.125,0.317767
2375.91,0.316457
2381.696,0.315928
2387.481,0.316678
2393.27,0.317135
2399.052,0.317682
2404.84,0.317592
2410.623,0.317251
2416.409,0.3167509
2422.194,0.315894
2427.98,0.314823
2433.765,0.3133561
2439.551,0.311988
2445.34,0.311157
2451.12,0.310207
2456.907,0.309793
2462.69,0.309214
2468.478,0.308744
2474.264,0.307372
2480.049,0.305726
2485.834,0.304041
2491.62,0.302792
2497.406,0.301892
2503.19,0.300941
2508.98,0.300462
2514.762,0.300093
2520.548,0.299884
2526.333,0.29999
2532.119,0.299802
2537.904,0.299939
2543.689,0.299404
2549.475,0.299227
2555.26,0.299103
2561.05,0.299471
2566.83,0.300398
2572.617,0.301804
2578.403,0.3037647
2584.188,0.305504
2589.973,0.307152
2595.759,0.309239
2601.544,0.311112
2607.33,0.3126948
2613.115,0.314616
2618.901,0.316907
2624.687,0.319525
2630.472,0.322304
2636.258,0.325131
2642.04,0.327937
2647.828,0.331573
2653.614,0.335163
2659.4,0.3387189
2665.185,0.341285
2670.97,0.344647
2676.756,0.34787
2682.542,0.351493
2688.327,0.355625
2694.112,0.359896
2699.9,0.364505
2705.683,0.368436
2711.469,0.372368
2717.25,0.37595
2723.04,0.380452
2728.825,0.384943
2734.611,0.388588
2740.4,0.392333
2746.18,0.3975485
2751.967,0.402461
2757.75,0.407355
2763.538,0.411759
2769.324,0.416911
2775.11,0.421946
2780.895,0.426909
2786.68,0.431279
2792.466,0.435726
2798.25,0.440809
2804.04,0.446857
2809.822,0.452698
2815.61,0.458527
2821.393,0.464496
2827.179,0.470392
2832.96,0.476256
2838.75,0.482328
2844.535,0.489227
2850.321,0.4950187
2856.11,0.500657
2861.89,0.506406
2867.677,0.5131389
2873.46,0.519446
2879.248,0.525594
2885.034,0.533073
2890.82,0.541004
2896.605,0.5477107
2902.39,0.554791
2908.176,0.562541
2913.961,0.571147
2919.75,0.577952
2925.532,0.58543
2931.32,0.59362
2937.103,0.601525
2942.889,0.609085
2948.67,0.617129
2954.46,0.6248177
2960.245,0.633101
2966.031,0.641012
2971.816,0.649132
2977.6,0.658556
2983.387,0.667954
2989.173,0.6772472
2994.958,0.6839433
3000.744,0.691586
3006.53,0.700993
3012.315,0.710852
3018.1,0.718611
3023.886,0.726665
3029.671,0.737443
3035.46,0.7481311
3041.242,0.75715
3047.028,0.764825
3052.813,0.772748
3058.599,0.781988
3064.384,0.792271
3070.17,0.802777
3075.955,0.811297
3081.741,0.821694
3087.526,0.83166
3093.312,0.840417
3099.097,0.849117
3104.883,0.8582766
3110.67,0.869889
3116.454,0.8784519
3122.239,0.88762
3128.025,0.898469
3133.81,0.908843
3139.595,0.917781
3145.381,0.9251969
3151.167,0.9361905
3156.952,0.946939
3162.738,0.955522
3168.52,0.9615378
3174.309,0.96752
3180.094,0.9774913
3185.88,0.98353
3191.665,0.993636
3197.45,1.00257
3203.236,1.00996
3209.02,1.014581
3214.81,1.02177
3220.593,1.02864
3226.38,1.03801
3232.164,1.04666
3237.949,1.05595
3243.73,1.06072
3249.52,1.06429
3255.305,1.06979
3261.091,1.07546
3266.88,1.08087
3272.66,1.08694
3278.448,1.09097
3284.23,1.09524
3290.02,1.09877
3295.804,1.10707
3301.59,1.11184
3307.375,1.11718
3313.16,1.12574
3318.946,1.13233
3324.73,1.13775
3330.52,1.13921
3336.302,1.15078
3342.09,1.16159
3347.873,1.16552
3353.659,1.16459
3359.44,1.16864
3365.23,1.17324
3371.015,1.17652
3376.801,1.17985
3382.586,1.18394
3388.37,1.18531
3394.157,1.18753
3399.94,1.19292
3405.728,1.1879
3411.514,1.18749
3417.3,1.19827
3423.085,1.2089
3428.87,1.20482
3434.656,1.20394
3440.441,1.2099
3446.23,1.213324
3452.012,1.21325
3457.798,1.2083
3463.583,1.21522
3469.369,1.21879
3475.15,1.2272
3480.94,1.22292
3486.725,1.22655
3492.511,1.22702
3498.296,1.230568
3504.08,1.22802
3509.867,1.23212
3515.653,1.237126
3521.438,1.235353
3527.224,1.232
3533.009,1.230415
3538.795,1.23353
3544.58,1.23693
3550.366,1.240199
3556.151,1.242252
3561.937,1.237578
3567.722,1.22809
3573.508,1.21834
3579.29,1.203296
3585.079,1.19061
3590.864,1.173453
3596.65,1.15632
3602.435,1.12807
3608.22,1.09718
3614.006,1.05995
3619.792,1.01471
3625.577,0.958099
3631.363,0.891307
3637.15,0.825357
3642.934,0.763654
3648.719,0.697323
3654.505,0.628549
3660.29,0.5662268
3666.08,0.512372
3671.861,0.46306
3677.647,0.421381
3683.43,0.389634
3689.218,0.362052
3695,0.338281
3700.789,0.318077
3706.574,0.303704
3712.36,0.2894342
3718.145,0.2771786
3723.93,0.2662863
3729.716,0.257861
3735.502,0.251656
3741.29,0.24917
3747.073,0.247329
3752.86,0.242343
3758.64,0.238633
3764.429,0.237007
3770.215,0.2362699
3776.0,0.234897
3781.79,0.233451
3787.571,0.23241
3793.36,0.230695
3799.14,0.229219
3804.927,0.227487
3810.71,0.228106
3816.5,0.227967
3822.284,0.227144
3828.07,0.225226
3833.855,0.224279
3839.64,0.223794
3845.426,0.222303
3851.211,0.221569
3857,0.221354
3862.782,0.221713
3868.57,0.220846
3874.35,0.221474
3880.139,0.220219
3885.925,0.220888
3891.71,0.220401
3897.495,0.220401
3903.281,0.219214
3909.066,0.218987
3914.85,0.219659
3920.637,0.219913
3926.423,0.219976
3932.208,0.219871
3937.994,0.220022
3943.78,0.220264
3949.565,0.220823
3955.35,0.220416
3961.136,0.2199418
3966.921,0.21906
3972.71,0.219374
3978.492,0.220001
3984.278,0.219453
3990.063,0.218891
3995.849,0.218257
4001.634,0.218393
4007.42,0.219045
4013.205,0.219371
4018.991,0.21897
4024.776,0.218935
4030.562,0.218806
4036.347,0.218161
4042.133,0.216943
4047.92,0.2163693
4053.704,0.216167
4059.489,0.216352
4065.275,0.215279
4071.06,0.214391
4076.85,0.213978
4082.631,0.2136787
4088.417,0.21368
4094.202,0.214316
4099.988,0.214601
4105.773,0.2140343
4111.559,0.212133
4117.344,0.2117226
4123.13,0.211339
4128.916,0.211474
4134.701,0.211105
4140.486,0.210642
4146.272,0.2094106
4152.057,0.209385
4157.843,0.209405
4163.628,0.2100639
4169.41,0.210516
4175.2,0.210218
4180.985,0.209714
4186.77,0.209069
4192.556,0.20882
4198.34,0.209195
4204.127,0.209851
4209.912,0.209659
4215.698,0.209651
4221.483,0.209653
4227.269,0.209922
4233.054,0.209509
4238.84,0.209128
4244.625,0.209449
4250.411,0.209879
4256.196,0.209489
4261.982,0.210485
4267.767,0.211051
4273.553,0.210733
4279.338,0.210218
4285.124,0.2099542
4290.91,0.210749
4296.695,0.210482
4302.48,0.210419
4308.266,0.210383
4314.05,0.211348
4319.84,0.212415
4325.622,0.214426
4331.41,0.214425
4337.193,0.21292
4342.979,0.2125793
4348.764,0.214168
4354.55,0.21478
4360.335,0.215465
4366.121,0.214904
4371.906,0.214497
4377.691,0.214649
4383.477,0.216423
4389.263,0.217766
4395.048,0.216658
4400.833,0.2165829
4406.62,0.216859
4412.405,0.2176508
4418.19,0.2183723
4423.976,0.2193657
4429.76,0.219838
4435.55,0.219287
4441.332,0.217936
4447.12,0.218808
4452.903,0.220161
4458.688,0.220954
4464.474,0.221197
4470.26,0.221196
4476.045,0.222194
4481.831,0.222858
4487.616,0.223302
4493.401,0.22301
4499.187,0.221364
4504.973,0.221365
4510.758,0.222761
4516.543,0.223991
4522.33,0.223593
4528.11,0.223098
4533.9,0.222353
4539.686,0.2222551
4545.471,0.222007
4551.26,0.222177
4557.042,0.222507
4562.83,0.221503
4568.613,0.220376
4574.398,0.220239
4580.184,0.2217194
4585.969,0.2217781
4591.755,0.221086
4597.541,0.2203672
4603.326,0.219883
4609.111,0.219468
4614.897,0.219923
4620.683,0.22121
4626.468,0.220909
4632.253,0.220034
4638.04,0.219784
4643.82,0.219971
4649.61,0.2202971
4655.396,0.221019
4661.181,0.221479
4666.97,0.221945
4672.752,0.221269
4678.538,0.220459
4684.323,0.220593
4690.108,0.22068
4695.894,0.221929
4701.679,0.221527
4707.465,0.221909
4713.25,0.2212674
4719.036,0.221652
4724.821,0.222947
4730.607,0.225696
4736.392,0.22728
4742.178,0.22727
4747.963,0.225189
4753.749,0.22333
4759.53,0.222697
4765.32,0.223852
4771.105,0.224413
4776.891,0.225898
4782.68,0.225676
4788.462,0.2255254
4794.247,0.224739
4800.03,0.22589
4805.818,0.227203
4811.604,0.22788
4817.389,0.22732
4823.175,0.228103
4828.96,0.227532
4834.746,0.2274512
4840.531,0.22759
4846.317,0.227794
4852.102,0.228297
4857.888,0.228547
4863.673,0.229332
4869.458,0.229476
4875.24,0.229095
4881.03,0.229013
4886.815,0.230219
4892.601,0.232043
4898.39,0.23273
4904.17,0.231525
4909.957,0.231058
4915.74,0.231496
4921.528,0.231659
4927.313,0.23186
4933.099,0.231589
4938.885,0.233097
4944.67,0.233824
4950.456,0.234068
4956.241,0.2330677
4962.027,0.23311
4967.812,0.234738
4973.598,0.236512
4979.383,0.237543
4985.168,0.237673
4990.95,0.235617
4996.74,0.235095
5002.525,0.234791
5008.311,0.2345
5014.096,0.234336
5019.88,0.235847
5025.667,0.237192
5031.45,0.237871
5037.238,0.236017
5043.023,0.23805
5048.809,0.239278
5054.595,0.240959
5060.38,0.24085
5066.166,0.242405
5071.951,0.241627
5077.736,0.240119
5083.522,0.238526
5089.308,0.2388702
5095.093,0.239337
5100.878,0.240379
5106.66,0.2429218
5112.45,0.244669
5118.235,0.244379
5124.021,0.242456
5129.806,0.2431261
5135.59,0.243597
5141.377,0.243808
5147.163,0.243208
5152.948,0.2441359
5158.733,0.2452267
5164.519,0.24524
5170.305,0.245877
5176.09,0.24684
5181.875,0.247776
5187.661,0.247747
5193.446,0.247562
5199.232,0.247873
5205.018,0.248908
5210.803,0.247589
5216.588,0.247809
5222.374,0.2476518
5228.16,0.2477925
5233.945,0.247541
5239.73,0.246633
5245.516,0.24457
5251.3,0.2419996
5257.09,0.242862
5262.87,0.245752
5268.658,0.245
5274.443,0.242839
5280.229,0.241612
5286.014,0.242126
5291.8,0.241116
5297.585,0.2401008
5303.371,0.238521
5309.156,0.238883
5314.94,0.240501
5320.728,0.240304
5326.51,0.242524
5332.3,0.243432
5338.084,0.245101
5343.87,0.24325
5349.655,0.241375
5355.44,0.2398257
5361.226,0.240058
5367.01,0.240081
5372.797,0.2416551
5378.58,0.238507
5384.368,0.2377066
5390.153,0.239161
5395.939,0.242879
5401.724,0.2447785
5407.51,0.243656
5413.295,0.2423607
5419.081,0.239965
5424.866,0.239977
5430.65,0.240543
5436.438,0.241246
5442.22,0.241701
5448.01,0.241271
5453.794,0.240209
5459.58,0.240124
5465.365,0.241367
5471.15,0.242842
5476.936,0.243646
5482.721,0.242866
5488.507,0.2399808
5494.29,0.238772
5500.078,0.238269
5505.863,0.240295
5511.649,0.240522
5517.434,0.239455
5523.22,0.2402273
5529.005,0.241901
5534.791,0.24262
5540.576,0.24077
5546.36,0.24084
5552.147,0.2421736
5557.93,0.240769
5563.72,0.238947
5569.504,0.240888
5575.29,0.241942
5581.075,0.240368
5586.86,0.238064
5592.646,0.2404
5598.431,0.240935
5604.217,0.242147
5610,0.240464
5615.79,0.24185
5621.573,0.2416309
5627.358,0.240634
5633.144,0.2390129
5638.93,0.239319
5644.715,0.242011
5650.5,0.241804
5656.286,0.240361
5662.07,0.24138
5667.857,0.242891
5673.643,0.2412602
5679.43,0.241039
5685.21,0.2391518
5690.999,0.2397695
5696.785,0.239073
5702.57,0.239116
5708.355,0.240299
5714.141,0.23873
5719.927,0.238225
5725.71,0.236914
5731.5,0.236058
5737.283,0.237216
5743.068,0.23898
5748.854,0.241626
5754.64,0.240259
5760.425,0.238896
5766.21,0.2363411
5771.996,0.23431
5777.78,0.234126
5783.57,0.2359547
5789.353,0.238831
5795.14,0.238523
5800.92,0.240704
5806.709,0.241619
5812.495,0.239647
5818.28,0.236657
5824.065,0.233675
5829.851,0.233665
5835.637,0.236456
5841.422,0.239628
5847.21,0.242061
5852.993,0.240778
5858.778,0.238917
5864.564,0.238997
5870.35,0.239842
5876.135,0.239653
5881.92,0.239406
5887.706,0.2392341
5893.491,0.23886
5899.28,0.2378108
5905.063,0.236427
5910.85,0.237614
5916.63,0.237
5922.419,0.2346311
5928.205,0.236261
5933.99,0.240098
5939.775,0.2398279
5945.561,0.236661
5951.346,0.235315
5957.132,0.237213
5962.92,0.236574
5968.703,0.234846
5974.488,0.234349
5980.274,0.23429
5986.06,0.236161
5991.845,0.23346
5997.63,0.232723
6003.416,0.234561
6009.201,0.241002
6014.99,0.238077
6020.772,0.235995
6026.56,0.234041
6032.34,0.231815
6038.129,0.233408
6043.915,0.236886
6049.7,0.238442
6055.485,0.234828
6061.271,0.234552
6067.056,0.237245
6072.842,0.241568
6078.63,0.242237
6084.41,0.24255
6090.198,0.239531
6095.984,0.237818
6101.769,0.233936
6107.555,0.233929
6113.34,0.232813
6119.126,0.234633
6124.911,0.2355604
6130.7,0.236619
6136.482,0.237902
6142.268,0.239126
6148.05,0.239704
6153.839,0.236663
6159.624,0.234719
6165.41,0.234524
6171.195,0.236943
6176.981,0.239668
6182.766,0.238257
6188.552,0.237628
6194.34,0.2365
6200.12,0.235441
6205.908,0.234522
6211.694,0.235199
6217.479,0.236954
6223.265,0.232751
6229.05,0.230556
6234.835,0.2343063
6240.621,0.239577
6246.41,0.23653
6252.19,0.233758
6257.978,0.232189
6263.76,0.23156
6269.549,0.231595
6275.334,0.227833
6281.12,0.226172
6286.905,0.2270288
6292.69,0.23195
6298.476,0.236567
6304.262,0.237269
6310.047,0.240261
6315.83,0.23925
6321.618,0.237814
6327.404,0.2359336
6333.189,0.23373
6338.975,0.235219
6344.76,0.235625
6350.545,0.237831
6356.331,0.2363
6362.12,0.235756
6367.9,0.2334363
6373.688,0.235716
6379.47,0.237376
6385.259,0.238589
6391.044,0.240774
6396.83,0.23736
6402.615,0.235807
6408.4,0.2349553
6414.186,0.2385491
6419.972,0.2401246
6425.757,0.238348
6431.54,0.238625
6437.328,0.237867
6443.113,0.235238
6448.899,0.233605
6454.685,0.234712
6460.47,0.237156
6466.255,0.233337
6472.041,0.233451
6477.83,0.2314818
6483.61,0.231256
6489.397,0.235086
6495.18,0.242709
6500.97,0.244242
6506.754,0.239553
6512.54,0.235526
6518.325,0.236767
6524.11,0.2426249
6529.896,0.2464082
6535.682,0.241555
6541.467,0.234057
6547.25,0.234126
6553.04,0.240707
6558.823,0.246227
6564.609,0.239649
6570.395,0.235366
6576.18,0.233396
6581.965,0.237503
6587.751,0.24105
6593.54,0.23403
6599.32,0.231075
6605.107,0.233432
6610.893,0.237169
6616.68,0.239172
6622.464,0.237898
6628.25,0.238733
6634.035,0.242655
6639.82,0.2430806
6645.606,0.244759
6651.391,0.239179
6657.177,0.237896
6662.96,0.235511
6668.75,0.2410563
6674.533,0.243457
6680.319,0.244716
6686.104,0.243759
6691.89,0.242993
6697.675,0.2477098
6703.46,0.245248
6709.246,0.238954
6715.03,0.238064
6720.82,0.240106
6726.603,0.238558
6732.39,0.235336
6738.174,0.233384
6743.959,0.2326779
6749.745,0.234228
6755.53,0.244088
6761.316,0.249725
6767.101,0.248941
6772.887,0.242239
6778.672,0.239819
6784.46,0.243431
6790.243,0.247436
6796.029,0.244269
6801.814,0.240767
6807.6,0.238885
6813.385,0.238887
6819.17,0.237614
6824.956,0.242858
6830.74,0.240571
6836.53,0.241821
6842.313,0.246187
6848.1,0.247802
6853.884,0.243894
6859.669,0.24068
6865.455,0.247982
6871.24,0.255497
6877.026,0.255357
6882.811,0.250479
6888.597,0.247512
6894.382,0.244905
6900.17,0.249326
6905.953,0.261568
6911.74,0.265819
6917.524,0.258463
6923.31,0.256879
6929.095,0.253975
6934.88,0.257849
6940.666,0.255688
6946.45,0.2530362
6952.24,0.2518117
6958.022,0.262776
6963.81,0.267344
6969.594,0.267745
6975.379,0.263485
6981.165,0.260217
6986.95,0.257198
6992.735,0.249011
6998.521,0.259192
7004.307,0.264064
7010.092,0.262824
7015.88,0.249679
7021.66,0.244762
7027.45,0.248865
7033.234,0.257331
7039.02,0.264654
7044.805,0.26287
7050.59,0.2635
7056.376,0.264494
7062.16,0.260164
7067.95,0.253545
7073.732,0.256832
7079.518,0.258959
7085.304,0.260478
7091.089,0.265374
7096.875,0.277113
7102.66,0.282171
7108.445,0.278368
7114.231,0.274017
7120.017,0.271343
7125.802,0.273993
7131.59,0.273461
7137.37,0.277286
7143.16,0.273714
7148.944,0.27504
7154.729,0.274145
7160.515,0.269849
7166.3,0.276206
7172.09,0.290927
7177.87,0.293061
7183.66,0.278005
7189.44,0.266938
7195.228,0.259746
7201.01,0.263898
7206.799,0.266383
7212.584,0.2713368
7218.37,0.2657634
7224.155,0.267128
7229.941,0.260558
7235.727,0.25919
7241.512,0.2692945
7247.297,0.286002
7253.08,0.282914
7258.868,0.271347
7264.654,0.2615
7270.439,0.2722516
7276.225,0.269697
7282.01,0.276879
7287.8,0.272278
7293.58,0.272192
7299.37,0.268685
7305.15,0.266024
7310.938,0.276889
7316.72,0.2731214
7322.509,0.272408
7328.294,0.277565
7334.08,0.274731
7339.865,0.265596
7345.651,0.2572986
7351.437,0.263174
7357.222,0.273355
7363.007,0.2764528
7368.79,0.283394
7374.578,0.28077
7380.36,0.267244
7386.149,0.2702948
7391.935,0.28436
7397.72,0.2864591
7403.51,0.296334
7409.291,0.2931058
7415.08,0.28613
7420.86,0.2783263
7426.648,0.280439
7432.43,0.290739
7438.219,0.287909
7444.004,0.286177
7449.79,0.293776
7455.575,0.301225
7461.361,0.2924416
7467.146,0.280353
7472.932,0.2748654
7478.717,0.2839348
7484.5,0.285209
7490.29,0.272234
7496.07,0.266478
7501.859,0.275982
7507.645,0.290789
7513.43,0.2922555
7519.22,0.2674055
7525.001,0.2708786
7530.79,0.2878818
7536.57,0.313723
7542.357,0.3105768
7548.143,0.293426
7553.929,0.282897
7559.714,0.289393
7565.5,0.292397
7571.285,0.277531
7577.071,0.277918
7582.856,0.301302
7588.642,0.299827
7594.427,0.299547
7600.21,0.299587
7606,0.29314
7611.78,0.274532
7617.569,0.276338
7623.354,0.290063
7629.14,0.3006581
7634.93,0.301813
7640.71,0.304995
7646.5,0.3078895
7652.28,0.305586
7658.07,0.2953902
7663.853,0.3070202
7669.639,0.322718
7675.424,0.318461
7681.209,0.294121
7686.995,0.27612
7692.781,0.265003
7698.566,0.271733
7704.352,0.295765
7710.137,0.309618
7715.922,0.313622
7721.71,0.2948
7727.49,0.292599
7733.279,0.314351
7739.064,0.331822
7744.85,0.341022
7750.635,0.34647
7756.42,0.3229811
7762.21,0.304834
7767.99,0.291098
7773.78,0.316299
7779.563,0.330352
7785.349,0.3262169
7791.134,0.333715
7796.919,0.327679
7802.705,0.302417
7808.49,0.274532
7814.276,0.317394
7820.062,0.368622
7825.847,0.360872
7831.632,0.3483145
7837.42,0.3492371
7843.2,0.345227
7848.99,0.317924
7854.774,0.303377
7860.56,0.310357
7866.345,0.3281973
7872.13,0.354216
7877.92,0.336461
7883.7,0.317688
7889.49,0.286456
7895.273,0.284277
7901.059,0.281523
7906.844,0.286325
7912.629,0.3257081
7918.415,0.341849
7924.2,0.361813
7929.986,0.360257
7935.771,0.37988
7941.557,0.405114
7947.342,0.403312
7953.13,0.397696
7958.91,0.42143
7964.7,0.432256
7970.484,0.35797
7976.27,0.272821
7982.055,0.249491
7987.84,0.261875
7993.626,0.319471
7999.41,0.3826382
8005.2,0.442252
8010.983,0.413407
8016.768,0.402866
8022.554,0.384241
8028.339,0.379935
8034.125,0.34592
8039.91,0.3407677
8045.696,0.364792
8051.481,0.405883
8057.267,0.3639809
8063.052,0.305642
8068.84,0.268008
8074.62,0.2994257
8080.41,0.358737
8086.194,0.38071
8091.979,0.373708
8097.765,0.3868455
8103.55,0.44204
8109.34,0.4456076
8115.12,0.3868509
8120.91,0.336691
8126.693,0.338965
8132.478,0.372967
8138.264,0.37999
8144.049,0.247619
8149.834,0.4900364
8155.62,0.623988
8161.406,0.688417
8167.191,0.497954
8172.977,0.224738
8178.762,0.496561
8184.55,0.5631433
8190.33,0.797854
8196.118,0.707185
8201.904,0.584368
8207.689,0.247157
8213.476,0.626211
8219.261,0.934909
8225.046,0.913528
8230.832,0.852025
8236.617,0.946044
8242.402,0.835206
8248.188,1.12768
8253.974,0.702702
8259.759,0.107822
8265.545,0.540541
8271.33,1.00137
8277.115,0.810561
8282.901,0.509882
8288.687,0.175547
8294.472,0.456564
8300.258,0.45195
8306.043,0.506817
8311.83,0.30827
8317.614,0.586949
8323.399,0.685594
8329.185,0.766085
8334.971,1.14678
8340.756,1.3401
8346.542,1.31236
8352.327,0.754589
8358.112,0.870068
8363.9,0.649381
8369.68,0.510706
8375.47,0.324858
8381.255,0.210294
8387.04,0.405906
8392.825,0.2594256
8398.61,0.378736
8404.396,0.611276
8410.18,1.50894
8415.968,1.73962
8421.753,1.17018
8427.538,0.773744
8433.324,0.509047
8439.109,0.250827
8444.895,0.847629
8450.681,1.02155
8456.466,1.06173
8462.251,0.701222
8468.037,1.13309
8473.822,1.1772
8479.608,3.34472
8485.394,3.7042
8491.179,2.79759
8496.965,1.43385
8500.821,2.16813