File: Glass FTIR Baseline Share With Sarah 2023/Dans_Examples/CL05MI01.csv
449.3401,4.498231
455.1256,3.379408
460.9111,1.974919
466.6966,1.568693
472.4821,1.63145
478.2676,1.79489
484.0531,2.07099
489.8386,2.33483
495.6241,1.90041
501.4096,1.33261
507.1951,1.161544
512.9806,0.910557
518.7661,1.56052
524.5516,2.15134
530.3371,2.8142
536.1226,2.145558
541.9081,1.27268
547.6935,1.54111
553.4791,1.70444
559.2646,1.39079
565.05,0.902264
570.8356,0.8432504
576.621,1.55537
582.4066,1.99045
588.192,2.548446
593.9775,2.38668
599.7631,1.43891
605.5485,1.63485
611.334,2.42364
617.1195,2.90287
622.905,3.61034
628.6905,3.338873
634.476,3.48822
640.2615,3.62822
646.047,3.57115
651.8325,3.47766
657.618,3.51874
663.4035,4.18386
669.189,4.773674
674.9745,4.66045
680.7599,3.32462
686.5455,3.278694
692.3309,4.00843
698.1165,4.91807
703.902,4.12526
709.6874,3.73087
715.473,3.81344
721.2584,4.21621
727.0439,4.9572
732.8294,4.67366
738.6149,4.11874
744.4004,3.49197
750.1859,3.356886
755.9714,3.73536
761.7569,3.58194
767.5424,3.76316
773.3279,3.73963
779.1134,3.72997
784.8989,3.523121
790.6844,3.61224
796.4699,3.51221
802.2554,3.44539
808.0409,3.4437
813.8264,3.62164
819.6119,3.75137
825.3973,3.675
831.1829,3.85457
836.9683,3.51726
842.7538,3.972771
848.5394,4.23828
854.3248,3.73411
860.1104,3.669015
865.8958,3.77381
871.6813,3.75952
877.4668,3.38333
883.2523,3.42792
889.0378,4.33861
894.8233,4.38731
900.6088,4.12634
906.3943,3.51097
912.1798,3.68916
917.9653,3.80293
923.7508,4.03849
929.5363,4.28106
935.3218,4.702115
941.1072,4.25656
946.8928,4.53565
952.6783,4.99393
958.4637,5.77034
964.2493,5.54264
970.0347,5.79196
975.8203,5.38592
981.6057,4.90485
987.3912,4.51775
993.1768,5.017693
998.9622,5.1024
1004.748,4.98169
1010.533,4.86995
1016.319,4.7917
1022.1,4.98036
1027.89,4.99166
1033.675,5.359029
1039.461,4.773756
1045.246,3.99028
1051.032,3.688077
1056.817,4.0386
1062.603,3.95413
1068.388,3.44476
1074.174,3.52402
1079.96,3.84183
1085.745,4.26153
1091.53,4.66204
1097.316,5.13854
1103.101,4.97986
1108.887,4.09478
1114.672,3.47141
1120.458,3.35815
1126.243,3.18097
1132.029,3.17068
1137.81,3.32971
1143.6,3.520263
1149.385,3.61572
1155.171,3.77156
1160.96,3.95093
1166.742,4.17122
1172.527,4.434284
1178.313,4.045887
1184.098,3.89519
1189.884,3.564677
1195.67,4.089806
1201.455,3.96952
1207.24,3.99806
1213.026,4.41316
1218.81,4.35947
1224.597,3.94196
1230.382,3.17073
1236.167,2.71546
1241.953,2.53223
1247.739,2.40425
1253.524,2.2562
1259.31,2.08991
1265.095,1.93314
1270.88,1.78883
1276.67,1.67208
1282.452,1.57582
1288.237,1.49088
1294.022,1.41583
1299.808,1.349505
1305.594,1.291656
1311.379,1.2404
1317.164,1.19523
1322.95,1.156161
1328.735,1.123277
1334.521,1.09485
1340.307,1.06845
1346.092,1.04486
1351.88,1.0237
1357.66,1.0061
1363.45,0.99129
1369.234,0.9791134
1375.019,0.969657
1380.805,0.962557
1386.59,0.9569823
1392.376,0.953085
1398.161,0.951654
1403.95,0.951431
1409.73,0.9514871
1415.52,0.95059
1421.3,0.950813
1427.089,0.949802
1432.874,0.947567
1438.66,0.9431045
1444.445,0.93788
1450.231,0.928913
1456.016,0.918284
1461.8,0.90872
1467.59,0.901563
1473.37,0.897777
1479.158,0.896465
1484.944,0.89947
1490.729,0.906035
1496.515,0.9142403
1502.3,0.921755
1508.086,0.926821
1513.871,0.9295567
1519.66,0.932846
1525.442,0.93276
1531.23,0.932394
1537.013,0.929183
1542.799,0.926693
1548.58,0.924041
1554.37,0.920622
1560.155,0.919701
1565.941,0.922315
1571.726,0.929506
1577.51,0.938134
1583.297,0.952725
1589.08,0.976324
1594.868,1.01234
1600.654,1.06668
1606.44,1.141118
1612.225,1.24144
1618.01,1.353849
1623.796,1.46685
1629.58,1.55388
1635.37,1.60544
1641.152,1.60031
1646.94,1.54907
1652.723,1.46816
1658.509,1.3773
1664.29,1.28181
1670.08,1.18747
1675.865,1.103271
1681.651,1.02829
1687.44,0.967231
1693.22,0.91664
1699.007,0.878002
1704.793,0.847717
1710.578,0.826352
1716.364,0.810667
1722.149,0.7978472
1727.935,0.785392
1733.72,0.773471
1739.506,0.762142
1745.29,0.750724
1751.08,0.741041
1756.862,0.733026
1762.648,0.726439
1768.433,0.71977
1774.219,0.713474
1780.004,0.707302
1785.79,0.701716
1791.575,0.696607
1797.361,0.691736
1803.146,0.686677
1808.932,0.682008
1814.717,0.677175
1820.503,0.672779
1826.29,0.668022
1832.07,0.663422
1837.859,0.658593
1843.645,0.654606
1849.43,0.650949
1855.22,0.6471625
1861.001,0.642916
1866.786,0.638651
1872.57,0.634707
1878.358,0.6306397
1884.14,0.626163
1889.93,0.621632
1895.714,0.617245
1901.5,0.61251
1907.285,0.608042
1913.07,0.603299
1918.856,0.598465
1924.641,0.593153
1930.43,0.588097
1936.213,0.582969
1942,0.5777826
1947.783,0.57259
1953.569,0.5677885
1959.354,0.5625607
1965.14,0.557655
1970.925,0.552796
1976.711,0.548247
1982.496,0.543901
1988.28,0.539811
1994.068,0.535714
1999.85,0.531761
2005.638,0.528263
2011.424,0.525109
2017.21,0.522309
2022.995,0.519433
2028.78,0.5168213
2034.566,0.5140542
2040.351,0.511597
2046.14,0.509455
2051.922,0.507303
2057.708,0.505328
2063.493,0.5034427
2069.279,0.501241
2075.064,0.4991205
2080.85,0.49751
2086.635,0.496287
2092.42,0.4948071
2098.206,0.492849
2103.992,0.490926
2109.777,0.4894847
2115.563,0.488047
2121.348,0.486837
2127.134,0.48551
2132.919,0.484272
2138.705,0.483099
2144.49,0.482117
2150.276,0.481348
2156.061,0.480655
2161.847,0.480084
2167.632,0.4795875
2173.42,0.4794582
2179.203,0.479458
2184.989,0.479386
2190.774,0.479301
2196.56,0.4792804
2202.345,0.4797642
2208.131,0.480501
2213.916,0.480975
2219.702,0.481419
2225.487,0.481581
2231.27,0.482396
2237.058,0.483387
2242.844,0.484471
2248.629,0.485291
2254.415,0.486338
2260.2,0.487828
2265.986,0.489584
2271.771,0.490897
2277.56,0.491871
2283.342,0.492723
2289.13,0.494113
2294.913,0.495656
2300.699,0.497016
2306.484,0.497798
2312.27,0.49848
2318.055,0.499339
2323.841,0.500093
2329.626,0.501004
2335.41,0.501844
2341.197,0.50427
2346.98,0.506647
2352.768,0.505678
2358.554,0.503439
2364.339,0.504147
2370.125,0.5072677
2375.91,0.509757
2381.696,0.510433
2387.481,0.510969
2393.27,0.510958
2399.052,0.510678
2404.84,0.510293
2410.623,0.509613
2416.409,0.508522
2422.194,0.5074896
2427.98,0.506489
2433.765,0.505281
2439.551,0.504141
2445.34,0.502747
2451.12,0.5012459
2456.907,0.499528
2462.69,0.498049
2468.478,0.496695
2474.264,0.495427
2480.049,0.493972
2485.834,0.492752
2491.62,0.491756
2497.406,0.491125
2503.19,0.490797
2508.98,0.490395
2514.762,0.4899531
2520.548,0.489869
2526.333,0.490374
2532.119,0.490916
2537.904,0.491999
2543.689,0.493542
2549.475,0.495215
2555.26,0.4973848
2561.05,0.499713
2566.83,0.502658
2572.617,0.505997
2578.403,0.509522
2584.188,0.51345
2589.973,0.517613
2595.759,0.5224937
2601.544,0.52752
2607.33,0.5324946
2613.115,0.537546
2618.901,0.5432814
2624.687,0.549748
2630.472,0.5562807
2636.258,0.5626381
2642.04,0.5694776
2647.828,0.576665
2653.614,0.584534
2659.4,0.592476
2665.185,0.6005031
2670.97,0.608695
2676.756,0.61733
2682.542,0.62661
2688.327,0.636183
2694.112,0.645602
2699.9,0.6551226
2705.683,0.664911
2711.469,0.675318
2717.25,0.68594
2723.04,0.696972
2728.825,0.707791
2734.611,0.719042
2740.4,0.7307383
2746.18,0.743149
2751.967,0.755143
2757.75,0.767559
2763.538,0.780739
2769.324,0.793299
2775.11,0.806845
2780.895,0.820366
2786.68,0.834456
2792.466,0.847782
2798.25,0.862088
2804.04,0.877775
2809.822,0.893037
2815.61,0.908521
2821.393,0.924379
2827.179,0.940226
2832.96,0.955771
2838.75,0.972386
2844.535,0.9891176
2850.321,1.00546
2856.11,1.02193
2861.89,1.038997
2867.677,1.05746
2873.46,1.07517
2879.248,1.092905
2885.034,1.11086
2890.82,1.130869
2896.605,1.15145
2902.39,1.17155
2908.176,1.19079
2913.961,1.20993
2919.75,1.230542
2925.532,1.25058
2931.32,1.27035
2937.103,1.29102
2942.889,1.31521
2948.67,1.339135
2954.46,1.359475
2960.245,1.378469
2966.031,1.40006
2971.816,1.42489
2977.6,1.44837
2983.387,1.47238
2989.173,1.49576
2994.958,1.52056
3000.744,1.54083
3006.53,1.56235
3012.315,1.58727
3018.1,1.617398
3023.886,1.644259
3029.671,1.66885
3035.46,1.6952
3041.242,1.72146
3047.028,1.746811
3052.813,1.77754
3058.599,1.8097
3064.384,1.84368
3070.17,1.87257
3075.955,1.89894
3081.741,1.92438
3087.526,1.94076
3093.312,1.96453
3099.097,1.9999
3104.883,2.04011
3110.67,2.0746
3116.454,2.10497
3122.239,2.13579
3128.025,2.1612
3133.81,2.19994
3139.595,2.24824
3145.381,2.27067
3151.167,2.29377
3156.952,2.31145
3162.738,2.33405
3168.52,2.35321
3174.309,2.41097
3180.094,2.48884
3185.88,2.507391
3191.665,2.54014
3197.45,2.566607
3203.236,2.58159
3209.02,2.56865
3214.81,2.61012
3220.593,2.65022
3226.38,2.639662
3232.164,2.66561
3237.949,2.70071
3243.73,2.76119
3249.52,2.73232
3255.305,2.6907
3261.091,2.67005
3266.88,2.77403
3272.66,2.82974
3278.448,2.859372
3284.23,2.83649
3290.02,2.8201
3295.804,2.9251
3301.59,3.30475
3307.375,3.34542
3313.16,3.24535
3318.946,3.11417
3324.73,3.348184
3330.52,3.22782
3336.302,3.057231
3342.09,2.75446
3347.873,3.1863
3353.659,3.76987
3359.44,4.27232
3365.23,4.21101
3371.015,3.75147
3376.801,3.4355
3382.586,3.90346
3388.37,4.088
3394.157,3.79029
3399.94,3.21022
3405.728,3.31818
3411.514,3.53316
3417.3,3.272352
3423.085,3.07656
3428.87,3.33635
3434.656,3.92135
3440.441,4.077276
3446.23,3.53319
3452.012,3.239253
3457.798,3.30134
3463.583,3.40494
3469.369,3.182314
3475.15,3.42278
3480.94,4.12642
3486.725,4.41096
3492.511,3.97552
3498.296,3.374777
3504.08,3.11501
3509.867,3.42729
3515.653,3.56362
3521.438,3.71239
3527.224,3.871959
3533.009,4.242987
3538.795,4.53754
3544.58,5.27658
3550.366,5.15115
3556.151,4.40187
3561.937,3.52678
3567.722,3.619176
3573.508,3.864046
3579.29,4.62461
3585.079,4.17951
3590.864,3.909508
3596.65,3.44197
3602.435,3.5042
3608.22,3.204445
3614.006,3.01191
3619.792,2.743522
3625.577,2.53219
3631.363,2.26367
3637.15,1.9599
3642.934,1.75246
3648.719,1.54237
3654.505,1.34054
3660.29,1.16427
3666.08,1.0196
3671.861,0.890435
3677.647,0.781572
3683.43,0.694498
3689.218,0.6237783
3695,0.56405
3700.789,0.51564
3706.574,0.476252
3712.36,0.4425736
3718.145,0.415881
3723.93,0.395117
3729.716,0.377971
3735.502,0.365659
3741.29,0.3540858
3747.073,0.345496
3752.86,0.3394976
3758.64,0.336299
3764.429,0.333286
3770.215,0.3293363
3776.0,0.326156
3781.79,0.3238797
3787.571,0.32165
3793.36,0.319236
3799.14,0.317114
3804.927,0.3156914
3810.71,0.3139217
3816.5,0.312264
3822.284,0.311379
3828.07,0.310666
3833.855,0.308743
3839.64,0.308421
3845.426,0.307442
3851.211,0.3072869
3857,0.306445
3862.782,0.3068289
3868.57,0.306996
3874.35,0.306275
3880.139,0.305854
3885.925,0.305453
3891.71,0.304897
3897.495,0.30497
3903.281,0.305355
3909.066,0.305349
3914.85,0.305506
3920.637,0.304932
3926.423,0.304513
3932.208,0.304212
3937.994,0.304184
3943.78,0.304103
3949.565,0.3044714
3955.35,0.30394
3961.136,0.303374
3966.921,0.302455
3972.71,0.30263
3978.492,0.302773
3984.278,0.302683
3990.063,0.301948
3995.849,0.300976
4001.634,0.300719
4007.42,0.300929
4013.205,0.300576
4018.991,0.299466
4024.776,0.2988286
4030.562,0.298518
4036.347,0.298718
4042.133,0.2983031
4047.92,0.2978327
4053.704,0.297522
4059.489,0.2974625
4065.275,0.297092
4071.06,0.296565
4076.85,0.295976
4082.631,0.2954775
4088.417,0.295018
4094.202,0.295159
4099.988,0.2947823
4105.773,0.294136
4111.559,0.293208
4117.344,0.292705
4123.13,0.292743
4128.916,0.292918
4134.701,0.29243
4140.486,0.29204
4146.272,0.291544
4152.057,0.2913833
4157.843,0.291241
4163.628,0.291388
4169.41,0.291467
4175.2,0.2911522
4180.985,0.291119
4186.77,0.29135
4192.556,0.291407
4198.34,0.291582
4204.127,0.29207
4209.912,0.292115
4215.698,0.291467
4221.483,0.2911263
4227.269,0.291467
4233.054,0.2919813
4238.84,0.292007
4244.625,0.292285
4250.411,0.293095
4256.196,0.293556
4261.982,0.293911
4267.767,0.294141
4273.553,0.294649
4279.338,0.294465
4285.124,0.294639
4290.91,0.295146
4296.695,0.296133
4302.48,0.2965849
4308.266,0.297171
4314.05,0.297855
4319.84,0.299268
4325.622,0.300553
4331.41,0.301069
4337.193,0.301711
4342.979,0.303024
4348.764,0.304533
4354.55,0.3055795
4360.335,0.30659
4366.121,0.307477
4371.906,0.308576
4377.691,0.3095466
4383.477,0.311
4389.263,0.312312
4395.048,0.31357
4400.833,0.314867
4406.62,0.3157677
4412.405,0.317008
4418.19,0.3184896
4423.976,0.320024
4429.76,0.321107
4435.55,0.3218969
4441.332,0.322775
4447.12,0.32412
4452.903,0.3258078
4458.688,0.327071
4464.474,0.327685
4470.26,0.328234
4476.045,0.32926
4481.831,0.330567
4487.616,0.33101
4493.401,0.331128
4499.187,0.331732
4504.973,0.3326726
4510.758,0.333267
4516.543,0.332965
4522.33,0.332665
4528.11,0.332583
4533.9,0.332179
4539.686,0.331336
4545.471,0.330457
4551.26,0.3299242
4557.042,0.3303318
4562.83,0.3300322
4568.613,0.329854
4574.398,0.3297205
4580.184,0.32894
4585.969,0.3276241
4591.755,0.3270788
4597.541,0.327782
4603.326,0.329381
4609.111,0.329274
4614.897,0.329226
4620.683,0.3285508
4626.468,0.328625
4632.253,0.328797
4638.04,0.329726
4643.82,0.3308889
4649.61,0.331729
4655.396,0.33291
4661.181,0.3336155
4666.97,0.334202
4672.752,0.334785
4678.538,0.335289
4684.323,0.335758
4690.108,0.335967
4695.894,0.336666
4701.679,0.337532
4707.465,0.338968
4713.25,0.339858
4719.036,0.3405175
4724.821,0.3409605
4730.607,0.341318
4736.392,0.342355
4742.178,0.3428803
4747.963,0.343194
4753.749,0.344257
4759.53,0.3463
4765.32,0.347527
4771.105,0.347035
4776.891,0.346855
4782.68,0.3480346
4788.462,0.349493
4794.247,0.35028
4800.03,0.350199
4805.818,0.350077
4811.604,0.350932
4817.389,0.351997
4823.175,0.3532248
4828.96,0.353493
4834.746,0.353702
4840.531,0.3540914
4846.317,0.354676
4852.102,0.355331
4857.888,0.356291
4863.673,0.357311
4869.458,0.3570458
4875.24,0.357504
4881.03,0.358438
4886.815,0.359595
4892.601,0.359723
4898.39,0.360493
4904.17,0.3616132
4909.957,0.362162
4915.74,0.3628792
4921.528,0.364404
4927.313,0.36558
4933.099,0.3654453
4938.885,0.365333
4944.67,0.36701
4950.456,0.368729
4956.241,0.369618
4962.027,0.369214
4967.812,0.369799
4973.598,0.370932
4979.383,0.372088
4985.168,0.373272
4990.95,0.373815
4996.74,0.374863
5002.525,0.3749946
5008.311,0.376041
5014.096,0.377133
5019.88,0.378525
5025.667,0.3794034
5031.45,0.38
5037.238,0.381713
5043.023,0.382577
5048.809,0.383113
5054.595,0.384145
5060.38,0.385194
5066.166,0.386309
5071.951,0.387173
5077.736,0.388204
5083.522,0.389265
5089.308,0.390572
5095.093,0.391133
5100.878,0.392302
5106.66,0.393698
5112.45,0.395233
5118.235,0.396231
5124.021,0.397304
5129.806,0.398021
5135.59,0.399247
5141.377,0.400817
5147.163,0.401709
5152.948,0.40123
5158.733,0.401498
5164.519,0.403701
5170.305,0.4052982
5176.09,0.406766
5181.875,0.407768
5187.661,0.409107
5193.446,0.4085611
5199.232,0.40798
5205.018,0.4090215
5210.803,0.409866
5216.588,0.410028
5222.374,0.408818
5228.16,0.4081804
5233.945,0.406391
5239.73,0.405198
5245.516,0.4048841
5251.3,0.405386
5257.09,0.403871
5262.87,0.402389
5268.658,0.400399
5274.443,0.400162
5280.229,0.399134
5286.014,0.398662
5291.8,0.3985398
5297.585,0.399079
5303.371,0.397592
5309.156,0.395996
5314.94,0.39616
5320.728,0.3967345
5326.51,0.397273
5332.3,0.397443
5338.084,0.396872
5343.87,0.397505
5349.655,0.397496
5355.44,0.398193
5361.226,0.397266
5367.01,0.396467
5372.797,0.396128
5378.58,0.3961488
5384.368,0.397075
5390.153,0.397942
5395.939,0.397943
5401.724,0.397985
5407.51,0.397507
5413.295,0.397086
5419.081,0.3967232
5424.866,0.397128
5430.65,0.398378
5436.438,0.397894
5442.22,0.397694
5448.01,0.398289
5453.794,0.399475
5459.58,0.399959
5465.365,0.3997082
5471.15,0.399306
5476.936,0.39867
5482.721,0.399327
5488.507,0.398952
5494.29,0.398879
5500.078,0.399926
5505.863,0.401177
5511.649,0.400576
5517.434,0.399043
5523.22,0.39905
5529.005,0.400227
5534.791,0.400909
5540.576,0.401509
5546.36,0.401162
5552.147,0.400481
5557.93,0.3997947
5563.72,0.399693
5569.504,0.4012819
5575.29,0.402195
5581.075,0.402836
5586.86,0.402178
5592.646,0.401258
5598.431,0.4008254
5604.217,0.4014652
5610,0.402752
5615.79,0.402096
5621.573,0.401369
5627.358,0.4007183
5633.144,0.4011754
5638.93,0.401724
5644.715,0.401936
5650.5,0.401136
5656.286,0.4015053
5662.07,0.40093
5667.857,0.401119
5673.643,0.4010632
5679.43,0.40109
5685.21,0.400665
5690.999,0.400184
5696.785,0.400504
5702.57,0.400594
5708.355,0.401257
5714.141,0.402367
5719.927,0.4024299
5725.71,0.400655
5731.5,0.3982627
5737.283,0.39806
5743.068,0.398073
5748.854,0.3992965
5754.64,0.398368
5760.425,0.39806
5766.21,0.398253
5771.996,0.399237
5777.78,0.3977385
5783.57,0.395127
5789.353,0.394154
5795.14,0.395202
5800.92,0.396197
5806.709,0.397012
5812.495,0.396205
5818.28,0.395334
5824.065,0.3948008
5829.851,0.394689
5835.637,0.3929375
5841.422,0.391979
5847.21,0.39251
5852.993,0.393288
5858.778,0.393457
5864.564,0.3915051
5870.35,0.390355
5876.135,0.390626
5881.92,0.392629
5887.706,0.393205
5893.491,0.391725
5899.28,0.390981
5905.063,0.392025
5910.85,0.392186
5916.63,0.3901698
5922.419,0.391093
5928.205,0.391578
5933.99,0.391749
5939.775,0.390389
5945.561,0.390562
5951.346,0.391862
5957.132,0.390438
5962.92,0.389656
5968.703,0.3897621
5974.488,0.391292
5980.274,0.391126
5986.06,0.390676
5991.845,0.391441
5997.63,0.3925772
6003.416,0.390783
6009.201,0.391543
6014.99,0.391945
6020.772,0.393282
6026.56,0.392222
6032.34,0.391909
6038.129,0.3921348
6043.915,0.391581
6049.7,0.390303
6055.485,0.390825
6061.271,0.389947
6067.056,0.390874
6072.842,0.3895344
6078.63,0.390644
6084.41,0.3916451
6090.198,0.393038
6095.984,0.395159
6101.769,0.39484
6107.555,0.395171
6113.34,0.392819
6119.126,0.392779
6124.911,0.391158
6130.7,0.388949
6136.482,0.3894357
6142.268,0.392408
6148.05,0.394442
6153.839,0.3934667
6159.624,0.392928
6165.41,0.3910324
6171.195,0.390042
6176.981,0.3898179
6182.766,0.390916
6188.552,0.3895827
6194.34,0.387951
6200.12,0.389537
6205.908,0.390665
6211.694,0.391167
6217.479,0.39076
6223.265,0.390569
6229.05,0.390354
6234.835,0.389408
6240.621,0.388375
6246.41,0.388319
6252.19,0.388859
6257.978,0.38775
6263.76,0.386564
6269.549,0.385929
6275.334,0.388532
6281.12,0.3912502
6286.905,0.390675
6292.69,0.389339
6298.476,0.386602
6304.262,0.3868491
6310.047,0.386533
6315.83,0.3853401
6321.618,0.3869646
6327.404,0.386593
6333.189,0.386877
6338.975,0.385206
6344.76,0.385651
6350.545,0.386794
6356.331,0.38664
6362.12,0.386953
6367.9,0.3877864
6373.688,0.39133
6379.47,0.390001
6385.259,0.387944
6391.044,0.387519
6396.83,0.38846
6402.615,0.390811
6408.4,0.390049
6414.186,0.3896234
6419.972,0.3886432
6425.757,0.38912
6431.54,0.388436
6437.328,0.3873183
6443.113,0.388028
6448.899,0.388288
6454.685,0.3890034
6460.47,0.3906631
6466.255,0.3919369
6472.041,0.393024
6477.83,0.395863
6483.61,0.3977304
6489.397,0.396738
6495.18,0.394011
6500.97,0.394048
6506.754,0.393906
6512.54,0.395058
6518.325,0.394145
6524.11,0.3945555
6529.896,0.396053
6535.682,0.397947
6541.467,0.39786
6547.25,0.3955201
6553.04,0.397612
6558.823,0.3965185
6564.609,0.398341
6570.395,0.398619
6576.18,0.401611
6581.965,0.4033222
6587.751,0.402954
6593.54,0.401285
6599.32,0.39878
6605.107,0.402079
6610.893,0.4058473
6616.68,0.40756
6622.464,0.4072725
6628.25,0.4083245
6634.035,0.40862
6639.82,0.4067643
6645.606,0.405297
6651.391,0.403596
6657.177,0.401956
6662.96,0.4034861
6668.75,0.406336
6674.533,0.406215
6680.319,0.407449
6686.104,0.407996
6691.89,0.411143
6697.675,0.40942
6703.46,0.412908
6709.246,0.411959
6715.03,0.41456
6720.82,0.414722
6726.603,0.412556
6732.39,0.412118
6738.174,0.410775
6743.959,0.4107023
6749.745,0.4125375
6755.53,0.414675
6761.316,0.4197447
6767.101,0.418253
6772.887,0.41788
6778.672,0.419077
6784.46,0.421492
6790.243,0.419913
6796.029,0.41582
6801.814,0.414936
6807.6,0.416747
6813.385,0.422269
6819.17,0.423418
6824.956,0.422071
6830.74,0.420489
6836.53,0.42256
6842.313,0.425875
6848.1,0.427992
6853.884,0.431945
6859.669,0.431653
6865.455,0.426495
6871.24,0.422049
6877.026,0.419485
6882.811,0.424952
6888.597,0.4261864
6894.382,0.425921
6900.17,0.4261101
6905.953,0.432657
6911.74,0.4351225
6917.524,0.437252
6923.31,0.436349
6929.095,0.439158
6934.88,0.441567
6940.666,0.444629
6946.45,0.444082
6952.24,0.447583
6958.022,0.445552
6963.81,0.4426745
6969.594,0.4405111
6975.379,0.441657
6981.165,0.445073
6986.95,0.447337
6992.735,0.446127
6998.521,0.4477486
7004.307,0.450534
7010.092,0.459087
7015.88,0.457888
7021.66,0.452237
7027.45,0.450251
7033.234,0.452512
7039.02,0.457125
7044.805,0.463315
7050.59,0.4666903
7056.376,0.462329
7062.16,0.454263
7067.95,0.454839
7073.732,0.455945
7079.518,0.460304
7085.304,0.466719
7091.089,0.46873
7096.875,0.468769
7102.66,0.460581
7108.445,0.46005
7114.231,0.463271
7120.017,0.4639469
7125.802,0.467096
7131.59,0.465006
7137.37,0.466742
7143.16,0.46851
7148.944,0.474762
7154.729,0.481889
7160.515,0.480318
7166.3,0.473394
7172.09,0.4752053
7177.87,0.468998
7183.66,0.459726
7189.44,0.464067
7195.228,0.469865
7201.01,0.476169
7206.799,0.479709
7212.584,0.482527
7218.37,0.476612
7224.155,0.475594
7229.941,0.4780701
7235.727,0.489125
7241.512,0.4883555
7247.297,0.485103
7253.08,0.483079
7258.868,0.485261
7264.654,0.481702
7270.439,0.4787348
7276.225,0.48019
7282.01,0.481678
7287.8,0.486123
7293.58,0.486017
7299.37,0.4953998
7305.15,0.494936
7310.938,0.492705
7316.72,0.491798
7322.509,0.503439
7328.294,0.506408
7334.08,0.499387
7339.865,0.491918
7345.651,0.496235
7351.437,0.506646
7357.222,0.503287
7363.007,0.492971
7368.79,0.497367
7374.578,0.508755
7380.36,0.515709
7386.149,0.500708
7391.935,0.494322
7397.72,0.501393
7403.51,0.504378
7409.291,0.5090194
7415.08,0.506753
7420.86,0.507191
7426.648,0.499086
7432.43,0.506807
7438.219,0.518436
7444.004,0.529394
7449.79,0.5298254
7455.575,0.5339791
7461.361,0.519167
7467.146,0.5030304
7472.932,0.506348
7478.717,0.511588
7484.5,0.522469
7490.29,0.531254
7496.07,0.539489
7501.859,0.542264
7507.645,0.540862
7513.43,0.535264
7519.22,0.521362
7525.001,0.519395
7530.79,0.521809
7536.57,0.532791
7542.357,0.539341
7548.143,0.541635
7553.929,0.531406
7559.714,0.528158
7565.5,0.542657
7571.285,0.5494
7577.071,0.550962
7582.856,0.549549
7588.642,0.549455
7594.427,0.54622
7600.21,0.528448
7606,0.522619
7611.78,0.52456
7617.569,0.5287759
7623.354,0.534237
7629.14,0.54333
7634.93,0.549403
7640.71,0.5392849
7646.5,0.521344
7652.28,0.53466
7658.07,0.5446755
7663.853,0.559048
7669.639,0.561278
7675.424,0.5488455
7681.209,0.5605173
7686.995,0.5610353
7692.781,0.5710063
7698.566,0.563791
7704.352,0.560789
7710.137,0.575041
7715.922,0.575354
7721.71,0.577505
7727.49,0.5771604
7733.279,0.595548
7739.064,0.582942
7744.85,0.58807
7750.635,0.584202
7756.42,0.585373
7762.21,0.579136
7767.99,0.588336
7773.78,0.604276
7779.563,0.6159382
7785.349,0.595453
7791.134,0.582026
7796.919,0.582424
7802.705,0.587009
7808.49,0.605316
7814.276,0.601484
7820.062,0.601284
7825.847,0.592558
7831.632,0.5666742
7837.42,0.560148
7843.2,0.588066
7848.99,0.599037
7854.774,0.6129696
7860.56,0.618448
7866.345,0.63188
7872.13,0.626803
7877.92,0.615724
7883.7,0.585912
7889.49,0.57275
7895.273,0.581246
7901.059,0.604592
7906.844,0.622074
7912.629,0.633716
7918.415,0.637351
7924.2,0.643883
7929.986,0.658555
7935.771,0.649255
7941.557,0.603541
7947.342,0.623132
7953.13,0.670451
7958.91,0.683755
7964.7,0.6351597
7970.484,0.617803
7976.27,0.646294
7982.055,0.66118
7987.84,0.624547
7993.626,0.580319
7999.41,0.5613052
8005.2,0.567883
8010.983,0.578216
8016.768,0.5778134
8022.554,0.6101829
8028.339,0.578437
8034.125,0.590527
8039.91,0.6054
8045.696,0.634795
8051.481,0.627266
8057.267,0.6307057
8063.052,0.645688
8068.84,0.632781
8074.62,0.641797
8080.41,0.652179
8086.194,0.6446378
8091.979,0.653122
8097.765,0.6946879
8103.55,0.67166
8109.34,0.589204
8115.12,0.588045
8120.91,0.678623
8126.693,0.725145
8132.478,0.719628
8138.264,0.711789
8144.049,0.725167
8149.834,0.680663
8155.62,0.656408
8161.406,0.6370128
8167.191,0.672134
8172.977,0.708479
8178.762,0.71432
8184.55,0.66294
8190.33,0.656749
8196.118,0.712181
8201.904,0.729832
8207.689,0.741584
8213.476,0.665785
8219.261,0.652302
8225.046,0.7326174
8230.832,0.822057
8236.617,0.785403
8242.402,0.698377
8248.188,0.627967
8253.974,0.722206
8259.759,0.795199
8265.545,0.76047
8271.33,0.572893
8277.115,0.660278
8282.901,0.782106
8288.687,0.931773
8294.472,0.865345
8300.258,0.752569
8306.043,0.758273
8311.83,0.769238
8317.614,0.777513
8323.399,0.655354
8329.185,0.48247
8334.971,0.892092
8340.756,1.10593
8346.542,1.64378
8352.327,1.47785
8358.112,0.921991
8363.9,0.721455
8369.68,0.763364
8375.47,0.812907
8381.255,0.5530879
8387.04,1.13449
8392.825,1.46181
8398.61,1.29891
8404.396,1.1358
8410.18,1.0759
8415.968,1.10258
8421.753,0.775781
8427.538,0.93523
8433.324,1.36035
8439.109,1.12201
8444.895,1.02944
8450.681,1.33291
8456.466,1.60578
8462.251,0.972787
8468.037,1.25763
8473.822,2.2296
8479.608,2.7611
8485.394,2.57673
8491.179,2.356427
8496.965,1.36253
8500.821,0.774918