File: Glass FTIR Baseline Share With Sarah 2023/Dans_Examples/CV04MI03.csv
449.3401,0.804911
455.1256,0.875135
460.9111,0.921672
466.6966,0.8836193
472.4821,0.797025
478.2676,0.7837325
484.0531,0.79818
489.8386,0.7657632
495.6241,0.745303
501.4096,0.7308284
507.1951,0.756541
512.9806,0.6975348
518.7661,0.674138
524.5516,0.646985
530.3371,0.606618
536.1226,0.577121
541.9081,0.550189
547.6935,0.570481
553.4791,0.5600732
559.2646,0.524097
565.05,0.511187
570.8356,0.525049
576.621,0.622712
582.4066,0.718432
588.192,0.763949
593.9775,0.8273977
599.7631,0.943355
605.5485,1.07013
611.334,1.0936
617.1195,1.157889
622.905,1.27577
628.6905,1.36606
634.476,1.38541
640.2615,1.41415
646.047,1.49306
651.8325,1.61068
657.618,1.71894
663.4035,1.68302
669.189,1.712275
674.9745,1.8551
680.7599,1.95956
686.5455,1.84881
692.3309,1.69732
698.1165,1.791963
703.902,1.8744
709.6874,1.88111
715.473,1.87231
721.2584,1.87404
727.0439,1.90841
732.8294,1.94163
738.6149,1.979551
744.4004,2.04308
750.1859,2.04725
755.9714,2.08225
761.7569,2.10081
767.5424,2.15372
773.3279,2.20818
779.1134,2.29764
784.8989,2.31857
790.6844,2.245729
796.4699,2.1802
802.2554,2.18624
808.0409,2.210934
813.8264,2.25365
819.6119,2.25669
825.3973,2.27551
831.1829,2.255922
836.9683,2.20672
842.7538,2.20038
848.5394,2.27668
854.3248,2.36424
860.1104,2.34557
865.8958,2.32464
871.6813,2.31642
877.4668,2.34119
883.2523,2.34932
889.0378,2.35608
894.8233,2.37233
900.6088,2.40957
906.3943,2.374134
912.1798,2.42405
917.9653,2.42613
923.7508,2.4261
929.5363,2.43865
935.3218,2.520476
941.1072,2.62638
946.8928,2.62142
952.6783,2.618
958.4637,2.59947
964.2493,2.68181
970.0347,2.69488
975.8203,3.02882
981.6057,3.386564
987.3912,3.6435
993.1768,3.817487
998.9622,3.61248
1004.748,3.42242
1010.533,2.95697
1016.319,2.80738
1022.1,3.11488
1027.89,3.07973
1033.675,3.02165
1039.461,2.97109
1045.246,3.01905
1051.032,3.1236
1056.817,3.02357
1062.603,3.30418
1068.388,3.09953
1074.174,2.98393
1079.96,2.67184
1085.745,3.00818
1091.53,3.12632
1097.316,3.09505
1103.101,2.81441
1108.887,3.18438
1114.672,3.51732
1120.458,3.585009
1126.243,3.188284
1132.029,2.81957
1137.81,3.11246
1143.6,3.16568
1149.385,3.13204
1155.171,2.97756
1160.96,3.09719
1166.742,3.09093
1172.527,3.04875
1178.313,3.19741
1184.098,3.18716
1189.884,3.13155
1195.67,3.04301
1201.455,3.42327
1207.24,3.58506
1213.026,3.15136
1218.81,2.439509
1224.597,1.99369
1230.382,1.662776
1236.167,1.44106
1241.953,1.27313
1247.739,1.14614
1253.524,1.04281
1259.31,0.960992
1265.095,0.892786
1270.88,0.835771
1276.67,0.7857693
1282.452,0.7416507
1288.237,0.702262
1294.022,0.668399
1299.808,0.639101
1305.594,0.6141153
1311.379,0.591323
1317.164,0.570521
1322.95,0.552275
1328.735,0.537319
1334.521,0.5249532
1340.307,0.515171
1346.092,0.507779
1351.88,0.5023597
1357.66,0.4988222
1363.45,0.498353
1369.234,0.500869
1375.019,0.506626
1380.805,0.514696
1386.59,0.524906
1392.376,0.5367782
1398.161,0.550092
1403.95,0.564969
1409.73,0.5795
1415.52,0.5938293
1421.3,0.6061351
1427.089,0.616006
1432.874,0.62122
1438.66,0.620398
1444.445,0.61381
1450.231,0.601163
1456.016,0.5852355
1461.8,0.57031
1467.59,0.56027
1473.37,0.559046
1479.158,0.564807
1484.944,0.577398
1490.729,0.591824
1496.515,0.604469
1502.3,0.612305
1508.086,0.616149
1513.871,0.615893
1519.66,0.61196
1525.442,0.603912
1531.23,0.594279
1537.013,0.5825896
1542.799,0.570189
1548.58,0.558089
1554.37,0.5454019
1560.155,0.53424
1565.941,0.52616
1571.726,0.522177
1577.51,0.520881
1583.297,0.524331
1589.08,0.532849
1594.868,0.547238
1600.654,0.56967
1606.44,0.601338
1612.225,0.643891
1618.01,0.694021
1623.796,0.743875
1629.58,0.782244
1635.37,0.801354
1641.152,0.797343
1646.94,0.77077
1652.723,0.730892
1658.509,0.685383
1664.29,0.6387671
1670.08,0.592909
1675.865,0.550358
1681.651,0.513032
1687.44,0.482985
1693.22,0.457654
1699.007,0.438593
1704.793,0.423508
1710.578,0.412982
1716.364,0.4045121
1722.149,0.397826
1727.935,0.391145
1733.72,0.384476
1739.506,0.377855
1745.29,0.3720163
1751.08,0.366834
1756.862,0.363008
1762.648,0.3598666
1768.433,0.356811
1774.219,0.354062
1780.004,0.351538
1785.79,0.348768
1791.575,0.345009
1797.361,0.341138
1803.146,0.337301
1808.932,0.333792
1814.717,0.3305022
1820.503,0.327479
1826.29,0.324819
1832.07,0.322216
1837.859,0.319436
1843.645,0.316588
1849.43,0.3137782
1855.22,0.310934
1861.001,0.307811
1866.786,0.304517
1872.57,0.3015
1878.358,0.298751
1884.14,0.295994
1889.93,0.293183
1895.714,0.29047
1901.5,0.287641
1907.285,0.284586
1913.07,0.281387
1918.856,0.278545
1924.641,0.275784
1930.43,0.27317
1936.213,0.270474
1942,0.267676
1947.783,0.264858
1953.569,0.2618987
1959.354,0.258811
1965.14,0.2556421
1970.925,0.2525053
1976.711,0.2497055
1982.496,0.24732
1988.28,0.24549
1994.068,0.244144
1999.85,0.242999
2005.638,0.241781
2011.424,0.240317
2017.21,0.238579
2022.995,0.236576
2028.78,0.234199
2034.566,0.231933
2040.351,0.230286
2046.14,0.229386
2051.922,0.229012
2057.708,0.229157
2063.493,0.229714
2069.279,0.230109
2075.064,0.230142
2080.85,0.22966
2086.635,0.228623
2092.42,0.2273127
2098.206,0.2259151
2103.992,0.224998
2109.777,0.224658
2115.563,0.225144
2121.348,0.226458
2127.134,0.228185
2132.919,0.2299763
2138.705,0.23131
2144.49,0.231936
2150.276,0.231724
2156.061,0.230849
2161.847,0.230054
2167.632,0.229774
2173.42,0.230352
2179.203,0.231704
2184.989,0.2337015
2190.774,0.236239
2196.56,0.238963
2202.345,0.24123
2208.131,0.242903
2213.916,0.243694
2219.702,0.2436102
2225.487,0.243368
2231.27,0.243694
2237.058,0.244821
2242.844,0.2464653
2248.629,0.248646
2254.415,0.251513
2260.2,0.254721
2265.986,0.257613
2271.771,0.259714
2277.56,0.260945
2283.342,0.261377
2289.13,0.261171
2294.913,0.2607105
2300.699,0.260522
2306.484,0.2610553
2312.27,0.2622431
2318.055,0.263776
2323.841,0.265399
2329.626,0.267123
2335.41,0.268542
2341.197,0.270681
2346.98,0.271027
2352.768,0.268367
2358.554,0.264501
2364.339,0.263838
2370.125,0.267777
2375.91,0.271955
2381.696,0.2759505
2387.481,0.2784756
2393.27,0.2809003
2399.052,0.282821
2404.84,0.283747
2410.623,0.283573
2416.409,0.2826456
2422.194,0.281043
2427.98,0.279193
2433.765,0.277692
2439.551,0.276915
2445.34,0.2772667
2451.12,0.2782988
2456.907,0.279878
2462.69,0.2812225
2468.478,0.28219
2474.264,0.282345
2480.049,0.281754
2485.834,0.280344
2491.62,0.278722
2497.406,0.277338
2503.19,0.2765
2508.98,0.2767118
2514.762,0.2779476
2520.548,0.279952
2526.333,0.2823599
2532.119,0.2846034
2537.904,0.2862109
2543.689,0.287135
2549.475,0.287453
2555.26,0.287352
2561.05,0.287184
2566.83,0.287577
2572.617,0.288755
2578.403,0.2906985
2584.188,0.293496
2589.973,0.297039
2595.759,0.300642
2601.544,0.303974
2607.33,0.306814
2613.115,0.309156
2618.901,0.310884
2624.687,0.312534
2630.472,0.3142656
2636.258,0.3162126
2642.04,0.319034
2647.828,0.322546
2653.614,0.326562
2659.4,0.3304233
2665.185,0.334506
2670.97,0.338608
2676.756,0.342486
2682.542,0.345938
2688.327,0.348904
2694.112,0.35165
2699.9,0.354886
2705.683,0.358619
2711.469,0.362722
2717.25,0.3670449
2723.04,0.371775
2728.825,0.3767812
2734.611,0.381765
2740.4,0.386759
2746.18,0.391656
2751.967,0.396337
2757.75,0.400857
2763.538,0.405518
2769.324,0.410216
2775.11,0.415056
2780.895,0.420415
2786.68,0.4259816
2792.466,0.43167
2798.25,0.4375057
2804.04,0.4437486
2809.822,0.449766
2815.61,0.455962
2821.393,0.4621357
2827.179,0.4685153
2832.96,0.4747363
2838.75,0.481393
2844.535,0.488517
2850.321,0.495811
2856.11,0.502849
2861.89,0.510077
2867.677,0.5175506
2873.46,0.525114
2879.248,0.532455
2885.034,0.540137
2890.82,0.548521
2896.605,0.557327
2902.39,0.565927
2908.176,0.574109
2913.961,0.583044
2919.75,0.592761
2925.532,0.6023847
2931.32,0.611114
2937.103,0.619362
2942.889,0.6285835
2948.67,0.6382376
2954.46,0.648167
2960.245,0.658386
2966.031,0.668985
2971.816,0.678854
2977.6,0.688344
2983.387,0.698192
2989.173,0.7089495
2994.958,0.71982
3000.744,0.730853
3006.53,0.741562
3012.315,0.7524216
3018.1,0.7641
3023.886,0.776991
3029.671,0.790621
3035.46,0.803471
3041.242,0.815577
3047.028,0.827949
3052.813,0.841266
3058.599,0.854565
3064.384,0.8684365
3070.17,0.881427
3075.955,0.894366
3081.741,0.907787
3087.526,0.922791
3093.312,0.938266
3099.097,0.952995
3104.883,0.967727
3110.67,0.982512
3116.454,0.997622
3122.239,1.0145
3128.025,1.029901
3133.81,1.04481
3139.595,1.06013
3145.381,1.07766
3151.167,1.09393
3156.952,1.10965
3162.738,1.12789
3168.52,1.14609
3174.309,1.161828
3180.094,1.176534
3185.88,1.1911
3191.665,1.20923
3197.45,1.22751
3203.236,1.24517
3209.02,1.26166
3214.81,1.276006
3220.593,1.29146
3226.38,1.307033
3232.164,1.32308
3237.949,1.33683
3243.73,1.34762
3249.52,1.35946
3255.305,1.37261
3261.091,1.39008
3266.88,1.40528
3272.66,1.4184
3278.448,1.42849
3284.23,1.4409
3290.02,1.45384
3295.804,1.47031
3301.59,1.48567
3307.375,1.49834
3313.16,1.51684
3318.946,1.53644
3324.73,1.55631
3330.52,1.57236
3336.302,1.58853
3342.09,1.61025
3347.873,1.62814
3353.659,1.64648
3359.44,1.661891
3365.23,1.67901
3371.015,1.69112
3376.801,1.70247
3382.586,1.713738
3388.37,1.727608
3394.157,1.74822
3399.94,1.75915
3405.728,1.78014
3411.514,1.78617
3417.3,1.79148
3423.085,1.800133
3428.87,1.8138
3434.656,1.82441
3440.441,1.83201
3446.23,1.83935
3452.012,1.84918
3457.798,1.85615
3463.583,1.86365
3469.369,1.87416
3475.15,1.88878
3480.94,1.8927
3486.725,1.888628
3492.511,1.89334
3498.296,1.90741
3504.08,1.910808
3509.867,1.89971
3515.653,1.89271
3521.438,1.88979
3527.224,1.89182
3533.009,1.89207
3538.795,1.88682
3544.58,1.86676
3550.366,1.85183
3556.151,1.85025
3561.937,1.84303
3567.722,1.83162
3573.508,1.79466
3579.29,1.75044
3585.079,1.69822
3590.864,1.63967
3596.65,1.57372
3602.435,1.49453
3608.22,1.41075
3614.006,1.31952
3619.792,1.22256
3625.577,1.12116
3631.363,1.017167
3637.15,0.9137238
3642.934,0.812372
3648.719,0.715039
3654.505,0.626076
3660.29,0.548549
3666.08,0.482096
3671.861,0.422504
3677.647,0.3727826
3683.43,0.332759
3689.218,0.300936
3695,0.27407
3700.789,0.2525305
3706.574,0.233737
3712.36,0.218151
3718.145,0.206044
3723.93,0.196752
3729.716,0.187486
3735.502,0.180447
3741.29,0.1752638
3747.073,0.171831
3752.86,0.1687907
3758.64,0.166847
3764.429,0.1647452
3770.215,0.162211
3776.0,0.160211
3781.79,0.158944
3787.571,0.157816
3793.36,0.156389
3799.14,0.154189
3804.927,0.152653
3810.71,0.151274
3816.5,0.1499362
3822.284,0.148885
3828.07,0.1480383
3833.855,0.1468784
3839.64,0.145863
3845.426,0.144459
3851.211,0.14379
3857,0.143085
3862.782,0.143034
3868.57,0.143094
3874.35,0.1424059
3880.139,0.141625
3885.925,0.140665
3891.71,0.1399196
3897.495,0.1387771
3903.281,0.138179
3909.066,0.138142
3914.85,0.138516
3920.637,0.137931
3926.423,0.137215
3932.208,0.1371631
3937.994,0.136999
3943.78,0.136441
3949.565,0.135374
3955.35,0.134534
3961.136,0.133673
3966.921,0.133067
3972.71,0.132427
3978.492,0.132411
3984.278,0.132425
3990.063,0.132408
3995.849,0.132097
4001.634,0.13186
4007.42,0.131673
4013.205,0.131278
4018.991,0.1302617
4024.776,0.12931
4030.562,0.128204
4036.347,0.127753
4042.133,0.127597
4047.92,0.127744
4053.704,0.1277319
4059.489,0.127661
4065.275,0.127649
4071.06,0.127727
4076.85,0.12726
4082.631,0.126492
4088.417,0.1254524
4094.202,0.1245953
4099.988,0.123988
4105.773,0.123627
4111.559,0.123283
4117.344,0.123577
4123.13,0.1244
4128.916,0.124847
4134.701,0.12472
4140.486,0.1242955
4146.272,0.123989
4152.057,0.1234807
4157.843,0.122992
4163.628,0.122015
4169.41,0.121297
4175.2,0.1210644
4180.985,0.1214213
4186.77,0.1221783
4192.556,0.122959
4198.34,0.123819
4204.127,0.124392
4209.912,0.124496
4215.698,0.124189
4221.483,0.123862
4227.269,0.123621
4233.054,0.123159
4238.84,0.123324
4244.625,0.124004
4250.411,0.125137
4256.196,0.126196
4261.982,0.127085
4267.767,0.1275963
4273.553,0.128042
4279.338,0.128364
4285.124,0.1288971
4290.91,0.1290476
4296.695,0.129136
4302.48,0.129383
4308.266,0.129958
4314.05,0.130863
4319.84,0.1317305
4325.622,0.132571
4331.41,0.13374
4337.193,0.134726
4342.979,0.135697
4348.764,0.136363
4354.55,0.136856
4360.335,0.137556
4366.121,0.138336
4371.906,0.139004
4377.691,0.140161
4383.477,0.1411628
4389.263,0.142231
4395.048,0.143051
4400.833,0.144335
4406.62,0.145073
4412.405,0.145731
4418.19,0.146343
4423.976,0.147191
4429.76,0.148157
4435.55,0.148738
4441.332,0.1492175
4447.12,0.149804
4452.903,0.150589
4458.688,0.150962
4464.474,0.151482
4470.26,0.152313
4476.045,0.1534849
4481.831,0.154151
4487.616,0.154356
4493.401,0.154194
4499.187,0.154248
4504.973,0.154445
4510.758,0.15441
4516.543,0.154209
4522.33,0.1540009
4528.11,0.15397
4533.9,0.1541797
4539.686,0.1537202
4545.471,0.153108
4551.26,0.1525463
4557.042,0.152016
4562.83,0.151709
4568.613,0.151383
4574.398,0.150936
4580.184,0.150474
4585.969,0.150443
4591.755,0.150736
4597.541,0.150633
4603.326,0.150468
4609.111,0.1503379
4614.897,0.150127
4620.683,0.149961
4626.468,0.1493498
4632.253,0.148809
4638.04,0.148587
4643.82,0.14899
4649.61,0.149569
4655.396,0.149865
4661.181,0.149641
4666.97,0.1493888
4672.752,0.149119
4678.538,0.149107
4684.323,0.148782
4690.108,0.148427
4695.894,0.14836
4701.679,0.148079
4707.465,0.1478941
4713.25,0.148158
4719.036,0.148665
4724.821,0.148788
4730.607,0.148899
4736.392,0.148786
4742.178,0.1483053
4747.963,0.148386
4753.749,0.147862
4759.53,0.14748
4765.32,0.1469338
4771.105,0.146832
4776.891,0.146988
4782.68,0.147209
4788.462,0.147858
4794.247,0.14829
4800.03,0.1490275
4805.818,0.1487566
4811.604,0.148526
4817.389,0.148063
4823.175,0.147445
4828.96,0.146293
4834.746,0.14559
4840.531,0.145801
4846.317,0.146133
4852.102,0.1462148
4857.888,0.146559
4863.673,0.146929
4869.458,0.146953
4875.24,0.1467214
4881.03,0.146557
4886.815,0.14625
4892.601,0.146033
4898.39,0.14563
4904.17,0.145404
4909.957,0.145317
4915.74,0.145542
4921.528,0.145709
4927.313,0.145757
4933.099,0.145843
4938.885,0.146227
4944.67,0.146996
4950.456,0.1464716
4956.241,0.145643
4962.027,0.144761
4967.812,0.1449979
4973.598,0.145231
4979.383,0.145106
4985.168,0.145469
4990.95,0.146089
4996.74,0.1469504
5002.525,0.147731
5008.311,0.147771
5014.096,0.147863
5019.88,0.147532
5025.667,0.147419
5031.45,0.1468566
5037.238,0.146663
5043.023,0.146885
5048.809,0.147706
5054.595,0.148269
5060.38,0.149165
5066.166,0.1494187
5071.951,0.149263
5077.736,0.149048
5083.522,0.1493919
5089.308,0.15008
5095.093,0.150257
5100.878,0.15001
5106.66,0.150281
5112.45,0.150564
5118.235,0.15148
5124.021,0.151805
5129.806,0.1522835
5135.59,0.153129
5141.377,0.154117
5147.163,0.154886
5152.948,0.155325
5158.733,0.155894
5164.519,0.156082
5170.305,0.1561631
5176.09,0.15589
5181.875,0.156247
5187.661,0.156953
5193.446,0.1577884
5199.232,0.158304
5205.018,0.158506
5210.803,0.1591496
5216.588,0.159789
5222.374,0.159761
5228.16,0.158854
5233.945,0.157412
5239.73,0.1571441
5245.516,0.157012
5251.3,0.156919
5257.09,0.1564923
5262.87,0.156193
5268.658,0.15627
5274.443,0.1555919
5280.229,0.155553
5286.014,0.155713
5291.8,0.156159
5297.585,0.155245
5303.371,0.1540032
5309.156,0.153839
5314.94,0.154476
5320.728,0.155029
5326.51,0.155502
5332.3,0.155776
5338.084,0.156791
5343.87,0.157295
5349.655,0.157455
5355.44,0.1580424
5361.226,0.158116
5367.01,0.158092
5372.797,0.15799
5378.58,0.157927
5384.368,0.158411
5390.153,0.1584384
5395.939,0.1587432
5401.724,0.158146
5407.51,0.158708
5413.295,0.159733
5419.081,0.160639
5424.866,0.160434
5430.65,0.1607889
5436.438,0.161299
5442.22,0.161583
5448.01,0.161263
5453.794,0.161461
5459.58,0.16132
5465.365,0.161801
5471.15,0.1619617
5476.936,0.162304
5482.721,0.16302
5488.507,0.162462
5494.29,0.16208
5500.078,0.161848
5505.863,0.162522
5511.649,0.163065
5517.434,0.163223
5523.22,0.1638451
5529.005,0.1648609
5534.791,0.165047
5540.576,0.1641503
5546.36,0.163754
5552.147,0.163568
5557.93,0.163311
5563.72,0.16345
5569.504,0.163766
5575.29,0.163799
5581.075,0.162955
5586.86,0.1631104
5592.646,0.1638084
5598.431,0.164542
5604.217,0.164204
5610,0.163235
5615.79,0.163188
5621.573,0.163287
5627.358,0.163684
5633.144,0.1636946
5638.93,0.1634871
5644.715,0.163402
5650.5,0.1634082
5656.286,0.163763
5662.07,0.163306
5667.857,0.1629372
5673.643,0.162607
5679.43,0.1630941
5685.21,0.163311
5690.999,0.163259
5696.785,0.163169
5702.57,0.162617
5708.355,0.162319
5714.141,0.161661
5719.927,0.161828
5725.71,0.1619996
5731.5,0.161896
5737.283,0.162095
5743.068,0.162525
5748.854,0.163007
5754.64,0.162526
5760.425,0.161368
5766.21,0.161757
5771.996,0.160993
5777.78,0.159953
5783.57,0.159456
5789.353,0.160468
5795.14,0.161479
5800.92,0.160952
5806.709,0.159879
5812.495,0.158381
5818.28,0.1583715
5824.065,0.158985
5829.851,0.1582353
5835.637,0.1580539
5841.422,0.156741
5847.21,0.1569321
5852.993,0.157714
5858.778,0.158134
5864.564,0.15788
5870.35,0.15788
5876.135,0.158414
5881.92,0.158184
5887.706,0.156577
5893.491,0.1558296
5899.28,0.155526
5905.063,0.1557058
5910.85,0.155317
5916.63,0.1557282
5922.419,0.156054
5928.205,0.1561659
5933.99,0.1553267
5939.775,0.155182
5945.561,0.154924
5951.346,0.155217
5957.132,0.1554472
5962.92,0.155467
5968.703,0.155543
5974.488,0.154561
5980.274,0.154149
5986.06,0.153574
5991.845,0.154692
5997.63,0.154159
6003.416,0.1537683
6009.201,0.153236
6014.99,0.153539
6020.772,0.154484
6026.56,0.154549
6032.34,0.154063
6038.129,0.152497
6043.915,0.152097
6049.7,0.152091
6055.485,0.151692
6061.271,0.152363
6067.056,0.152841
6072.842,0.152925
6078.63,0.1519131
6084.41,0.151409
6090.198,0.152351
6095.984,0.153085
6101.769,0.153611
6107.555,0.152362
6113.34,0.151815
6119.126,0.151652
6124.911,0.152727
6130.7,0.153208
6136.482,0.152469
6142.268,0.1530325
6148.05,0.153885
6153.839,0.154891
6159.624,0.1537271
6165.41,0.152658
6171.195,0.151958
6176.981,0.152922
6182.766,0.153203
6188.552,0.154018
6194.34,0.154579
6200.12,0.1535451
6205.908,0.152989
6211.694,0.152871
6217.479,0.153857
6223.265,0.154537
6229.05,0.1550074
6234.835,0.1544
6240.621,0.1536929
6246.41,0.153739
6252.19,0.1537663
6257.978,0.1541712
6263.76,0.156368
6269.549,0.1559617
6275.334,0.154647
6281.12,0.153979
6286.905,0.15438
6292.69,0.156407
6298.476,0.15705
6304.262,0.15747
6310.047,0.1576119
6315.83,0.1574177
6321.618,0.157579
6327.404,0.157031
6333.189,0.157483
6338.975,0.158099
6344.76,0.157246
6350.545,0.1554383
6356.331,0.154433
6362.12,0.156623
6367.9,0.1589962
6373.688,0.1598307
6379.47,0.1611271
6385.259,0.160607
6391.044,0.159236
6396.83,0.157898
6402.615,0.1587404
6408.4,0.159079
6414.186,0.158559
6419.972,0.158397
6425.757,0.157057
6431.54,0.157584
6437.328,0.158607
6443.113,0.159018
6448.899,0.1585673
6454.685,0.15919
6460.47,0.1601067
6466.255,0.160767
6472.041,0.1601865
6477.83,0.160618
6483.61,0.161527
6489.397,0.1631207
6495.18,0.164345
6500.97,0.1629205
6506.754,0.1622648
6512.54,0.162121
6518.325,0.1630199
6524.11,0.162989
6529.896,0.163866
6535.682,0.164311
6541.467,0.1641078
6547.25,0.163367
6553.04,0.163339
6558.823,0.162424
6564.609,0.162041
6570.395,0.16456
6576.18,0.1654051
6581.965,0.16525
6587.751,0.163841
6593.54,0.164823
6599.32,0.165104
6605.107,0.165978
6610.893,0.1670732
6616.68,0.167183
6622.464,0.166038
6628.25,0.167145
6634.035,0.167478
6639.82,0.16864
6645.606,0.167197
6651.391,0.166619
6657.177,0.1665435
6662.96,0.1673819
6668.75,0.167062
6674.533,0.166749
6680.319,0.1668754
6686.104,0.166799
6691.89,0.166741
6697.675,0.167518
6703.46,0.168626
6709.246,0.168404
6715.03,0.16706
6720.82,0.166917
6726.603,0.168821
6732.39,0.168703
6738.174,0.167194
6743.959,0.167584
6749.745,0.1692501
6755.53,0.16843
6761.316,0.1668693
6767.101,0.167048
6772.887,0.170217
6778.672,0.171792
6784.46,0.170501
6790.243,0.1689917
6796.029,0.167981
6801.814,0.1692
6807.6,0.171222
6813.385,0.173028
6819.17,0.172371
6824.956,0.169737
6830.74,0.168042
6836.53,0.169333
6842.313,0.1721199
6848.1,0.173603
6853.884,0.17313
6859.669,0.173321
6865.455,0.1746207
6871.24,0.174196
6877.026,0.172974
6882.811,0.1704973
6888.597,0.171798
6894.382,0.174277
6900.17,0.176418
6905.953,0.176835
6911.74,0.17619
6917.524,0.1752
6923.31,0.1757
6929.095,0.173625
6934.88,0.1735439
6940.666,0.174764
6946.45,0.178412
6952.24,0.179265
6958.022,0.176707
6963.81,0.177271
6969.594,0.177866
6975.379,0.180931
6981.165,0.181063
6986.95,0.1805913
6992.735,0.180839
6998.521,0.1787906
7004.307,0.179322
7010.092,0.178321
7015.88,0.179542
7021.66,0.177506
7027.45,0.178239
7033.234,0.178269
7039.02,0.180062
7044.805,0.180293
7050.59,0.182286
7056.376,0.182465
7062.16,0.183037
7067.95,0.184979
7073.732,0.1864747
7079.518,0.1863451
7085.304,0.186502
7091.089,0.187942
7096.875,0.187951
7102.66,0.188305
7108.445,0.186752
7114.231,0.184702
7120.017,0.186383
7125.802,0.1882138
7131.59,0.187485
7137.37,0.1843811
7143.16,0.185029
7148.944,0.188267
7154.729,0.1891379
7160.515,0.1884646
7166.3,0.185947
7172.09,0.1841613
7177.87,0.185913
7183.66,0.186307
7189.44,0.187659
7195.228,0.187988
7201.01,0.191261
7206.799,0.190932
7212.584,0.191561
7218.37,0.191729
7224.155,0.193092
7229.941,0.193256
7235.727,0.191375
7241.512,0.189777
7247.297,0.1886686
7253.08,0.195222
7258.868,0.197446
7264.654,0.196177
7270.439,0.192285
7276.225,0.193732
7282.01,0.195838
7287.8,0.194356
7293.58,0.193685
7299.37,0.19343
7305.15,0.192803
7310.938,0.19447
7316.72,0.196084
7322.509,0.199906
7328.294,0.2004354
7334.08,0.199063
7339.865,0.194786
7345.651,0.197666
7351.437,0.200915
7357.222,0.203467
7363.007,0.202616
7368.79,0.201756
7374.578,0.2008809
7380.36,0.194816
7386.149,0.19361
7391.935,0.193059
7397.72,0.193619
7403.51,0.194428
7409.291,0.1975192
7415.08,0.202415
7420.86,0.202334
7426.648,0.201937
7432.43,0.202745
7438.219,0.201676
7444.004,0.199818
7449.79,0.200348
7455.575,0.2072086
7461.361,0.2093462
7467.146,0.20567
7472.932,0.203452
7478.717,0.202473
7484.5,0.202212
7490.29,0.198453
7496.07,0.1987753
7501.859,0.201619
7507.645,0.2032012
7513.43,0.2041264
7519.22,0.208167
7525.001,0.213297
7530.79,0.212008
7536.57,0.213837
7542.357,0.213802
7548.143,0.2108491
7553.929,0.209999
7559.714,0.213509
7565.5,0.215366
7571.285,0.2181432
7577.071,0.213889
7582.856,0.215189
7588.642,0.211055
7594.427,0.2119101
7600.21,0.213304
7606,0.211512
7611.78,0.209938
7617.569,0.213177
7623.354,0.218779
7629.14,0.2234999
7634.93,0.218339
7640.71,0.2084049
7646.5,0.205653
7652.28,0.2129631
7658.07,0.2208198
7663.853,0.227078
7669.639,0.227074
7675.424,0.2272269
7681.209,0.230261
7686.995,0.229515
7692.781,0.226442
7698.566,0.218325
7704.352,0.218951
7710.137,0.224045
7715.922,0.231336
7721.71,0.23141
7727.49,0.225337
7733.279,0.226712
7739.064,0.228253
7744.85,0.231143
7750.635,0.225338
7756.42,0.22291
7762.21,0.220654
7767.99,0.219129
7773.78,0.214991
7779.563,0.220373
7785.349,0.224055
7791.134,0.2242951
7796.919,0.220808
7802.705,0.221203
7808.49,0.2335521
7814.276,0.237517
7820.062,0.2396696
7825.847,0.233488
7831.632,0.225206
7837.42,0.22775
7843.2,0.236188
7848.99,0.245195
7854.774,0.234939
7860.56,0.229109
7866.345,0.225931
7872.13,0.229708
7877.92,0.220793
7883.7,0.224994
7889.49,0.2251858
7895.273,0.222403
7901.059,0.234149
7906.844,0.245695
7912.629,0.246565
7918.415,0.233332
7924.2,0.22896
7929.986,0.241734
7935.771,0.252418
7941.557,0.245032
7947.342,0.242293
7953.13,0.247361
7958.91,0.252976
7964.7,0.256426
7970.484,0.250045
7976.27,0.239688
7982.055,0.237812
7987.84,0.2366163
7993.626,0.2468916
7999.41,0.230133
8005.2,0.2482112
8010.983,0.244552
8016.768,0.250223
8022.554,0.24481
8028.339,0.238402
8034.125,0.235327
8039.91,0.245612
8045.696,0.259174
8051.481,0.263044
8057.267,0.260331
8063.052,0.2500766
8068.84,0.2353834
8074.62,0.226398
8080.41,0.248613
8086.194,0.260467
8091.979,0.2499292
8097.765,0.233321
8103.55,0.251812
8109.34,0.278189
8115.12,0.282063
8120.91,0.252657
8126.693,0.244514
8132.478,0.239525
8138.264,0.251111
8144.049,0.247291
8149.834,0.250574
8155.62,0.245516
8161.406,0.2694081
8167.191,0.291748
8172.977,0.277964
8178.762,0.252334
8184.55,0.2530824
8190.33,0.255147
8196.118,0.268006
8201.904,0.257968
8207.689,0.2760932
8213.476,0.279687
8219.261,0.2896998
8225.046,0.274851
8230.832,0.306167
8236.617,0.299468
8242.402,0.300095
8248.188,0.294319
8253.974,0.312026
8259.759,0.318217
8265.545,0.303809
8271.33,0.292646
8277.115,0.272788
8282.901,0.247974
8288.687,0.2749182
8294.472,0.2976178
8300.258,0.285726
8306.043,0.288213
8311.83,0.302734
8317.614,0.344419
8323.399,0.331848
8329.185,0.33594
8334.971,0.31228
8340.756,0.307543
8346.542,0.305462
8352.327,0.282823
8358.112,0.299331
8363.9,0.332496
8369.68,0.350248
8375.47,0.335791
8381.255,0.322278
8387.04,0.316569
8392.825,0.266976
8398.61,0.29425
8404.396,0.274059
8410.18,0.30197
8415.968,0.348896
8421.753,0.393972
8427.538,0.413976
8433.324,0.3955495
8439.109,0.3469176
8444.895,0.334628
8450.681,0.33266
8456.466,0.3457362
8462.251,0.3811126
8468.037,0.356518
8473.822,0.3460804
8479.608,0.326453
8485.394,0.2874018
8491.179,0.277199
8496.965,0.383215
8500.821,0.358994