File: Glass FTIR Baseline Share With Sarah 2023/Dans_Examples/FR02MI01.csv
449.3401,2.58038
455.1256,0.569672
460.9111,0.970044
466.6966,0.95773
472.4821,0.706495
478.2676,0.69715
484.0531,0.681627
489.8386,0.7449968
495.6241,1.06462
501.4096,0.580948
507.1951,0.512377
512.9806,0.689274
518.7661,0.5950329
524.5516,0.689824
530.3371,0.560154
536.1226,0.6253253
541.9081,0.413878
547.6935,0.213376
553.4791,0.014043
559.2646,0.2561916
565.05,0.392211
570.8356,-0.00987633
576.621,0.926621
582.4066,0.44794
588.192,0.843774
593.9775,1.048637
599.7631,1.45429
605.5485,0.985124
611.334,1.85282
617.1195,1.47845
622.905,1.51114
628.6905,1.48943
634.476,1.1425
640.2615,1.80974
646.047,2.08531
651.8325,2.03104
657.618,1.80949
663.4035,1.90388
669.189,2.37708
674.9745,2.54026
680.7599,2.64091
686.5455,2.64513
692.3309,3.096398
698.1165,2.93266
703.902,2.61675
709.6874,2.34117
715.473,2.11618
721.2584,2.05323
727.0439,1.98556
732.8294,2.54879
738.6149,3.56241
744.4004,3.352814
750.1859,2.89183
755.9714,2.56378
761.7569,3.051186
767.5424,3.264227
773.3279,2.91364
779.1134,2.41776
784.8989,1.86163
790.6844,2.4403
796.4699,2.53267
802.2554,2.35721
808.0409,2.60343
813.8264,2.90732
819.6119,2.81572
825.3973,2.21277
831.1829,2.032959
836.9683,2.774136
842.7538,3.41655
848.5394,3.67256
854.3248,2.88389
860.1104,2.73208
865.8958,2.57825
871.6813,2.94663
877.4668,2.84177
883.2523,2.38458
889.0378,2.69958
894.8233,3.28842
900.6088,3.13581
906.3943,2.63253
912.1798,2.83992
917.9653,3.49519
923.7508,3.96877
929.5363,4.08935
935.3218,4.16399
941.1072,4.02613
946.8928,3.4414
952.6783,3.11473
958.4637,2.712275
964.2493,2.963061
970.0347,2.99709
975.8203,3.49003
981.6057,3.65313
987.3912,3.21947
993.1768,3.72266
998.9622,3.99879
1004.748,3.80466
1010.533,3.36906
1016.319,3.5367
1022.1,3.50458
1027.89,3.77097
1033.675,3.75378
1039.461,3.80396
1045.246,3.58254
1051.032,4.058636
1056.817,4.2829
1062.603,3.436442
1068.388,3.01527
1074.174,3.15851
1079.96,3.38849
1085.745,3.54407
1091.53,3.22093
1097.316,2.70175
1103.101,2.31514
1108.887,2.79202
1114.672,3.014604
1120.458,3.23501
1126.243,2.86125
1132.029,3.10089
1137.81,2.78029
1143.6,2.89024
1149.385,2.65953
1155.171,2.890768
1160.96,3.00196
1166.742,2.89435
1172.527,2.74882
1178.313,2.49111
1184.098,2.39177
1189.884,2.54745
1195.67,2.69385
1201.455,2.69364
1207.24,2.443144
1213.026,2.33374
1218.81,2.51965
1224.597,2.607336
1230.382,2.50338
1236.167,2.19108
1241.953,2.01247
1247.739,1.8494
1253.524,1.61489
1259.31,1.38703
1265.095,1.19276
1270.88,1.054174
1276.67,0.9468183
1282.452,0.861401
1288.237,0.792462
1294.022,0.738284
1299.808,0.693359
1305.594,0.656257
1311.379,0.6254429
1317.164,0.599446
1322.95,0.577335
1328.735,0.557678
1334.521,0.542031
1340.307,0.5286795
1346.092,0.5166507
1351.88,0.504454
1357.66,0.49418
1363.45,0.485961
1369.234,0.479202
1375.019,0.473845
1380.805,0.469218
1386.59,0.465438
1392.376,0.462127
1398.161,0.459922
1403.95,0.458741
1409.73,0.457742
1415.52,0.455952
1421.3,0.4538
1427.089,0.451297
1432.874,0.4479876
1438.66,0.443209
1444.445,0.43779
1450.231,0.431278
1456.016,0.4227846
1461.8,0.415575
1467.59,0.409622
1473.37,0.405125
1479.158,0.401453
1484.944,0.402037
1490.729,0.405907
1496.515,0.41091
1502.3,0.415534
1508.086,0.417451
1513.871,0.417403
1519.66,0.41772
1525.442,0.418488
1531.23,0.417714
1537.013,0.415072
1542.799,0.412456
1548.58,0.409872
1554.37,0.4078939
1560.155,0.40618
1565.941,0.407163
1571.726,0.4101804
1577.51,0.415487
1583.297,0.424431
1589.08,0.439188
1594.868,0.46402
1600.654,0.501299
1606.44,0.554639
1612.225,0.6299364
1618.01,0.721559
1623.796,0.813736
1629.58,0.879654
1635.37,0.906442
1641.152,0.890495
1646.94,0.839092
1652.723,0.769358
1658.509,0.693964
1664.29,0.6229255
1670.08,0.5574527
1675.865,0.501389
1681.651,0.456089
1687.44,0.4212795
1693.22,0.3922093
1699.007,0.371055
1704.793,0.354745
1710.578,0.34356
1716.364,0.333731
1722.149,0.3261296
1727.935,0.320263
1733.72,0.316279
1739.506,0.31327
1745.29,0.3109637
1751.08,0.309101
1756.862,0.307271
1762.648,0.30585
1768.433,0.303624
1774.219,0.300805
1780.004,0.298571
1785.79,0.296935
1791.575,0.295412
1797.361,0.2933556
1803.146,0.290984
1808.932,0.288305
1814.717,0.285259
1820.503,0.281396
1826.29,0.27696
1832.07,0.272558
1837.859,0.26958
1843.645,0.266806
1849.43,0.2636
1855.22,0.25947
1861.001,0.2556923
1866.786,0.2522397
1872.57,0.248899
1878.358,0.245463
1884.14,0.2419895
1889.93,0.238507
1895.714,0.234994
1901.5,0.232162
1907.285,0.229759
1913.07,0.226358
1918.856,0.222281
1924.641,0.217897
1930.43,0.213908
1936.213,0.209261
1942,0.205047
1947.783,0.2011411
1953.569,0.1976336
1959.354,0.193625
1965.14,0.189601
1970.925,0.185303
1976.711,0.181063
1982.496,0.1769607
1988.28,0.172941
1994.068,0.168819
1999.85,0.164951
2005.638,0.1621929
2011.424,0.159487
2017.21,0.1569223
2022.995,0.154429
2028.78,0.1521561
2034.566,0.15016
2040.351,0.148051
2046.14,0.146186
2051.922,0.144588
2057.708,0.1430451
2063.493,0.1417619
2069.279,0.1406783
2075.064,0.139886
2080.85,0.139177
2086.635,0.1382051
2092.42,0.137342
2098.206,0.136568
2103.992,0.135798
2109.777,0.134863
2115.563,0.133919
2121.348,0.1332727
2127.134,0.1331595
2132.919,0.132833
2138.705,0.132522
2144.49,0.1317655
2150.276,0.131176
2156.061,0.1309429
2161.847,0.131134
2167.632,0.130704
2173.42,0.13
2179.203,0.1295158
2184.989,0.129541
2190.774,0.129254
2196.56,0.129197
2202.345,0.129391
2208.131,0.129822
2213.916,0.1297425
2219.702,0.129701
2225.487,0.129208
2231.27,0.129041
2237.058,0.129288
2242.844,0.129792
2248.629,0.130248
2254.415,0.130351
2260.2,0.130494
2265.986,0.130521
2271.771,0.130565
2277.56,0.130885
2283.342,0.131395
2289.13,0.131514
2294.913,0.131331
2300.699,0.130539
2306.484,0.13009
2312.27,0.12987
2318.055,0.129375
2323.841,0.129396
2329.626,0.129199
2335.41,0.1281784
2341.197,0.1271836
2346.98,0.1278726
2352.768,0.127866
2358.554,0.126942
2364.339,0.125713
2370.125,0.126302
2375.91,0.1275846
2381.696,0.129175
2387.481,0.129483
2393.27,0.129102
2399.052,0.128455
2404.84,0.12772
2410.623,0.1271083
2416.409,0.126188
2422.194,0.125256
2427.98,0.124243
2433.765,0.123289
2439.551,0.122904
2445.34,0.12239
2451.12,0.121972
2456.907,0.121384
2462.69,0.1207128
2468.478,0.119486
2474.264,0.118431
2480.049,0.118176
2485.834,0.11787
2491.62,0.117656
2497.406,0.1175045
2503.19,0.11755
2508.98,0.1176004
2514.762,0.117558
2520.548,0.117652
2526.333,0.11748
2532.119,0.118111
2537.904,0.119119
2543.689,0.120822
2549.475,0.122369
2555.26,0.1233729
2561.05,0.124386
2566.83,0.126478
2572.617,0.1281705
2578.403,0.129849
2584.188,0.131595
2589.973,0.134182
2595.759,0.1366954
2601.544,0.139378
2607.33,0.142076
2613.115,0.1452
2618.901,0.148059
2624.687,0.1512334
2630.472,0.154659
2636.258,0.1581188
2642.04,0.1616065
2647.828,0.164616
2653.614,0.167879
2659.4,0.171249
2665.185,0.175344
2670.97,0.1798681
2676.756,0.184598
2682.542,0.189056
2688.327,0.193512
2694.112,0.197949
2699.9,0.202662
2705.683,0.20735
2711.469,0.211736
2717.25,0.216612
2723.04,0.221961
2728.825,0.227524
2734.611,0.233455
2740.4,0.239687
2746.18,0.245513
2751.967,0.250834
2757.75,0.2561571
2763.538,0.261777
2769.324,0.2674766
2775.11,0.27344
2780.895,0.279322
2786.68,0.286136
2792.466,0.293958
2798.25,0.3009872
2804.04,0.308493
2809.822,0.3151142
2815.61,0.322563
2821.393,0.3290004
2827.179,0.335556
2832.96,0.343265
2838.75,0.351072
2844.535,0.3596051
2850.321,0.367753
2856.11,0.376783
2861.89,0.385163
2867.677,0.393828
2873.46,0.401398
2879.248,0.410692
2885.034,0.4208615
2890.82,0.431499
2896.605,0.440676
2902.39,0.448809
2908.176,0.457499
2913.961,0.467903
2919.75,0.4788079
2925.532,0.489704
2931.32,0.499488
2937.103,0.510515
2942.889,0.521695
2948.67,0.531878
2954.46,0.542232
2960.245,0.554221
2966.031,0.566451
2971.816,0.578999
2977.6,0.591727
2983.387,0.604565
2989.173,0.6167295
2994.958,0.6283732
3000.744,0.640112
3006.53,0.653963
3012.315,0.6671382
3018.1,0.681016
3023.886,0.694387
3029.671,0.708894
3035.46,0.722792
3041.242,0.7376491
3047.028,0.753164
3052.813,0.767687
3058.599,0.783284
3064.384,0.798744
3070.17,0.81377
3075.955,0.830065
3081.741,0.847676
3087.526,0.8650213
3093.312,0.880458
3099.097,0.895687
3104.883,0.914344
3110.67,0.9341919
3116.454,0.95124
3122.239,0.968769
3128.025,0.983084
3133.81,0.9992384
3139.595,1.01479
3145.381,1.03775
3151.167,1.0558
3156.952,1.07435
3162.738,1.09327
3168.52,1.12078
3174.309,1.14048
3180.094,1.15601
3185.88,1.17151
3191.665,1.185878
3197.45,1.20537
3203.236,1.23085
3209.02,1.25644
3214.81,1.274827
3220.593,1.292661
3226.38,1.30644
3232.164,1.32403
3237.949,1.341684
3243.73,1.35954
3249.52,1.36798
3255.305,1.371777
3261.091,1.39082
3266.88,1.404975
3272.66,1.410647
3278.448,1.423032
3284.23,1.43283
3290.02,1.43869
3295.804,1.45639
3301.59,1.48736
3307.375,1.50964
3313.16,1.51879
3318.946,1.53386
3324.73,1.57093
3330.52,1.585922
3336.302,1.59426
3342.09,1.60269
3347.873,1.615835
3353.659,1.63187
3359.44,1.67053
3365.23,1.70905
3371.015,1.72898
3376.801,1.73039
3382.586,1.73034
3388.37,1.72787
3394.157,1.74252
3399.94,1.74879
3405.728,1.74601
3411.514,1.77161
3417.3,1.826555
3423.085,1.85114
3428.87,1.82104
3434.656,1.81812
3440.441,1.853325
3446.23,1.866611
3452.012,1.84533
3457.798,1.86332
3463.583,1.88745
3469.369,1.901
3475.15,1.905792
3480.94,1.93203
3486.725,1.91604
3492.511,1.91641
3498.296,1.92078
3504.08,1.93361
3509.867,1.92578
3515.653,1.96714
3521.438,1.98303
3527.224,1.95832
3533.009,1.93895
3538.795,1.93156
3544.58,1.95156
3550.366,1.94095
3556.151,1.94052
3561.937,1.93943
3567.722,1.93082
3573.508,1.88451
3579.29,1.8879
3585.079,1.8602
3590.864,1.83522
3596.65,1.780639
3602.435,1.689923
3608.22,1.60152
3614.006,1.50469
3619.792,1.420522
3625.577,1.313542
3631.363,1.20172
3637.15,1.0753
3642.934,0.9525243
3648.719,0.830933
3654.505,0.713247
3660.29,0.602079
3666.08,0.5063371
3671.861,0.422729
3677.647,0.352905
3683.43,0.299296
3689.218,0.255453
3695,0.221141
3700.789,0.19242
3706.574,0.170423
3712.36,0.151736
3718.145,0.136911
3723.93,0.124246
3729.716,0.113918
3735.502,0.10735
3741.29,0.102113
3747.073,0.0971829
3752.86,0.0928013
3758.64,0.0894977
3764.429,0.0886151
3770.215,0.0867338
3776.0,0.0856249
3781.79,0.084979
3787.571,0.0840901
3793.36,0.0832588
3799.14,0.081295
3804.927,0.08055035
3810.71,0.0797674
3816.5,0.0792201
3822.284,0.078934
3828.07,0.0790829
3833.855,0.0794187
3839.64,0.07885044
3845.426,0.0782268
3851.211,0.077451
3857,0.07677804
3862.782,0.0772221
3868.57,0.0777776
3874.35,0.0784278
3880.139,0.0785854
3885.925,0.08007281
3891.71,0.0807775
3897.495,0.0796292
3903.281,0.0791469
3909.066,0.0793022
3914.85,0.08006999
3920.637,0.0799686
3926.423,0.0806276
3932.208,0.0807471
3937.994,0.0801194
3943.78,0.0803862
3949.565,0.0814928
3955.35,0.0830262
3961.136,0.0834249
3966.921,0.0831111
3972.71,0.08189159
3978.492,0.0814062
3984.278,0.0810175
3990.063,0.0807226
3995.849,0.080445
4001.634,0.08130623
4007.42,0.08261704
4013.205,0.0833503
4018.991,0.08242784
4024.776,0.0816921
4030.562,0.0817791
4036.347,0.0818086
4042.133,0.0813242
4047.92,0.0808316
4053.704,0.0804099
4059.489,0.0798737
4065.275,0.0795867
4071.06,0.0799564
4076.85,0.0804462
4082.631,0.08003445
4088.417,0.07904233
4094.202,0.0783421
4099.988,0.0789033
4105.773,0.07797973
4111.559,0.0772009
4117.344,0.0765914
4123.13,0.07575661
4128.916,0.0756364
4134.701,0.0757355
4140.486,0.077065
4146.272,0.0767875
4152.057,0.0763024
4157.843,0.07574008
4163.628,0.0754673
4169.41,0.0746115
4175.2,0.0743012
4180.985,0.0742604
4186.77,0.0755245
4192.556,0.0771974
4198.34,0.0774992
4204.127,0.07739525
4209.912,0.07651313
4215.698,0.0757473
4221.483,0.07504787
4227.269,0.0755454
4233.054,0.0770382
4238.84,0.07802457
4244.625,0.0780303
4250.411,0.0777053
4256.196,0.0779809
4261.982,0.0794255
4267.767,0.079919
4273.553,0.0796237
4279.338,0.0784626
4285.124,0.078541
4290.91,0.07879729
4296.695,0.07921275
4302.48,0.07958173
4308.266,0.0808181
4314.05,0.0822478
4319.84,0.08272899
4325.622,0.08250644
4331.41,0.0831398
4337.193,0.0835098
4342.979,0.08291
4348.764,0.0829517
4354.55,0.0836149
4360.335,0.08462878
4366.121,0.0854327
4371.906,0.0884538
4377.691,0.0900649
4383.477,0.0904276
4389.263,0.0907364
4395.048,0.091289
4400.833,0.0922696
4406.62,0.09355827
4412.405,0.0953844
4418.19,0.0964629
4423.976,0.0966135
4429.76,0.0967603
4435.55,0.09764077
4441.332,0.0993853
4447.12,0.0994515
4452.903,0.09922367
4458.688,0.09888698
4464.474,0.09880125
4470.26,0.0989751
4476.045,0.10103
4481.831,0.102138
4487.616,0.103349
4493.401,0.104205
4499.187,0.105279
4504.973,0.1052478
4510.758,0.104681
4516.543,0.10447
4522.33,0.103452
4528.11,0.103174
4533.9,0.104076
4539.686,0.104853
4545.471,0.104606
4551.26,0.104483
4557.042,0.104469
4562.83,0.103968
4568.613,0.102754
4574.398,0.101568
4580.184,0.100983
4585.969,0.0996578
4591.755,0.0996293
4597.541,0.100697
4603.326,0.101249
4609.111,0.100084
4614.897,0.100069
4620.683,0.101259
4626.468,0.102449
4632.253,0.102231
4638.04,0.101411
4643.82,0.101787
4649.61,0.103097
4655.396,0.104845
4661.181,0.10565
4666.97,0.1052903
4672.752,0.105445
4678.538,0.1051571
4684.323,0.105848
4690.108,0.107361
4695.894,0.108762
4701.679,0.108508
4707.465,0.107589
4713.25,0.10683
4719.036,0.1078796
4724.821,0.108425
4730.607,0.108195
4736.392,0.108187
4742.178,0.108636
4747.963,0.1104117
4753.749,0.111987
4759.53,0.113137
4765.32,0.1123034
4771.105,0.112434
4776.891,0.113837
4782.68,0.115337
4788.462,0.114541
4794.247,0.11431
4800.03,0.1148442
4805.818,0.1144565
4811.604,0.11453
4817.389,0.114144
4823.175,0.116154
4828.96,0.117442
4834.746,0.118569
4840.531,0.120457
4846.317,0.120713
4852.102,0.119319
4857.888,0.119033
4863.673,0.120818
4869.458,0.121213
4875.24,0.12019
4881.03,0.120727
4886.815,0.120512
4892.601,0.120504
4898.39,0.120933
4904.17,0.123342
4909.957,0.1260946
4915.74,0.126216
4921.528,0.12475
4927.313,0.123534
4933.099,0.12387
4938.885,0.126276
4944.67,0.128101
4950.456,0.128164
4956.241,0.128831
4962.027,0.129723
4967.812,0.129235
4973.598,0.12912
4979.383,0.129572
4985.168,0.132292
4990.95,0.134422
4996.74,0.135296
5002.525,0.133755
5008.311,0.134264
5014.096,0.136007
5019.88,0.1376649
5025.667,0.137948
5031.45,0.136588
5037.238,0.135225
5043.023,0.135471
5048.809,0.137555
5054.595,0.1379279
5060.38,0.1363496
5066.166,0.137713
5071.951,0.139749
5077.736,0.140884
5083.522,0.1396714
5089.308,0.140934
5095.093,0.141695
5100.878,0.142451
5106.66,0.1421884
5112.45,0.143414
5118.235,0.143491
5124.021,0.143103
5129.806,0.1423792
5135.59,0.143212
5141.377,0.145734
5147.163,0.148342
5152.948,0.148246
5158.733,0.147941
5164.519,0.1484
5170.305,0.150122
5176.09,0.152077
5181.875,0.153386
5187.661,0.152028
5193.446,0.151376
5199.232,0.151737
5205.018,0.154128
5210.803,0.152733
5216.588,0.154957
5222.374,0.156129
5228.16,0.157748
5233.945,0.1550897
5239.73,0.152906
5245.516,0.151654
5251.3,0.150955
5257.09,0.152744
5262.87,0.153437
5268.658,0.152817
5274.443,0.1491
5280.229,0.147363
5286.014,0.147558
5291.8,0.146534
5297.585,0.145243
5303.371,0.144786
5309.156,0.144268
5314.94,0.144035
5320.728,0.1434966
5326.51,0.1455985
5332.3,0.148218
5338.084,0.146911
5343.87,0.1432705
5349.655,0.141743
5355.44,0.144486
5361.226,0.146266
5367.01,0.145151
5372.797,0.1454018
5378.58,0.1443656
5384.368,0.144226
5390.153,0.14429
5395.939,0.144385
5401.724,0.144967
5407.51,0.145026
5413.295,0.1450498
5419.081,0.144558
5424.866,0.145063
5430.65,0.145151
5436.438,0.145339
5442.22,0.148031
5448.01,0.1483027
5453.794,0.148328
5459.58,0.1484053
5465.365,0.149932
5471.15,0.150037
5476.936,0.1505493
5482.721,0.150666
5488.507,0.150292
5494.29,0.147403
5500.078,0.147504
5505.863,0.147729
5511.649,0.150005
5517.434,0.149725
5523.22,0.147559
5529.005,0.146856
5534.791,0.147442
5540.576,0.15072
5546.36,0.152186
5552.147,0.152444
5557.93,0.1476532
5563.72,0.146047
5569.504,0.1476596
5575.29,0.151958
5581.075,0.152816
5586.86,0.151947
5592.646,0.150433
5598.431,0.1487417
5604.217,0.14928
5610,0.151914
5615.79,0.1531536
5621.573,0.151153
5627.358,0.14958
5633.144,0.152295
5638.93,0.151092
5644.715,0.150707
5650.5,0.149853
5656.286,0.151878
5662.07,0.1520254
5667.857,0.1506816
5673.643,0.148616
5679.43,0.1484249
5685.21,0.148652
5690.999,0.148994
5696.785,0.14708
5702.57,0.14745
5708.355,0.149134
5714.141,0.150767
5719.927,0.150765
5725.71,0.149252
5731.5,0.149553
5737.283,0.1509642
5743.068,0.1527184
5748.854,0.1534
5754.64,0.152727
5760.425,0.149753
5766.21,0.148335
5771.996,0.147562
5777.78,0.147945
5783.57,0.146439
5789.353,0.146648
5795.14,0.150911
5800.92,0.152469
5806.709,0.151654
5812.495,0.147451
5818.28,0.145568
5824.065,0.148185
5829.851,0.1487544
5835.637,0.147909
5841.422,0.14828
5847.21,0.149157
5852.993,0.150433
5858.778,0.149977
5864.564,0.1483235
5870.35,0.148194
5876.135,0.150931
5881.92,0.151263
5887.706,0.15215
5893.491,0.151248
5899.28,0.1529445
5905.063,0.149473
5910.85,0.148613
5916.63,0.151023
5922.419,0.154305
5928.205,0.1519079
5933.99,0.147336
5939.775,0.145893
5945.561,0.148543
5951.346,0.1470108
5957.132,0.147347
5962.92,0.1500466
5968.703,0.149927
5974.488,0.1438226
5980.274,0.143662
5986.06,0.148613
5991.845,0.1516883
5997.63,0.150052
6003.416,0.146725
6009.201,0.146376
6014.99,0.145994
6020.772,0.146417
6026.56,0.146402
6032.34,0.1472298
6038.129,0.148433
6043.915,0.1481465
6049.7,0.147034
6055.485,0.143958
6061.271,0.146008
6067.056,0.150533
6072.842,0.150548
6078.63,0.150318
6084.41,0.1505177
6090.198,0.154604
6095.984,0.150399
6101.769,0.146421
6107.555,0.141409
6113.34,0.146414
6119.126,0.145659
6124.911,0.141545
6130.7,0.145882
6136.482,0.1484607
6142.268,0.152525
6148.05,0.14813
6153.839,0.151174
6159.624,0.148018
6165.41,0.1483671
6171.195,0.146198
6176.981,0.147434
6182.766,0.149041
6188.552,0.148164
6194.34,0.146978
6200.12,0.148312
6205.908,0.145258
6211.694,0.1437462
6217.479,0.141934
6223.265,0.1447862
6229.05,0.1450216
6234.835,0.150627
6240.621,0.150524
6246.41,0.14992
6252.19,0.14793
6257.978,0.146886
6263.76,0.145134
6269.549,0.14402
6275.334,0.147676
6281.12,0.1520078
6286.905,0.150386
6292.69,0.145421
6298.476,0.1446952
6304.262,0.1455317
6310.047,0.1451804
6315.83,0.146687
6321.618,0.148437
6327.404,0.148312
6333.189,0.148768
6338.975,0.149969
6344.76,0.154007
6350.545,0.150686
6356.331,0.1452734
6362.12,0.1456
6367.9,0.14565
6373.688,0.145379
6379.47,0.150026
6385.259,0.152226
6391.044,0.151468
6396.83,0.143266
6402.615,0.141957
6408.4,0.146506
6414.186,0.153819
6419.972,0.158228
6425.757,0.158135
6431.54,0.154417
6437.328,0.152431
6443.113,0.1483285
6448.899,0.143989
6454.685,0.142885
6460.47,0.146353
6466.255,0.151729
6472.041,0.1506624
6477.83,0.145702
6483.61,0.14567
6489.397,0.146317
6495.18,0.150015
6500.97,0.150856
6506.754,0.153346
6512.54,0.156962
6518.325,0.158757
6524.11,0.15879
6529.896,0.153909
6535.682,0.147328
6541.467,0.149635
6547.25,0.153859
6553.04,0.151712
6558.823,0.1504
6564.609,0.150418
6570.395,0.155445
6576.18,0.150912
6581.965,0.151566
6587.751,0.150423
6593.54,0.151908
6599.32,0.154406
6605.107,0.156401
6610.893,0.156001
6616.68,0.1514594
6622.464,0.155194
6628.25,0.1565524
6634.035,0.157631
6639.82,0.151173
6645.606,0.15255
6651.391,0.15541
6657.177,0.155485
6662.96,0.147482
6668.75,0.1472668
6674.533,0.157298
6680.319,0.162244
6686.104,0.1611639
6691.89,0.15952
6697.675,0.164779
6703.46,0.1610937
6709.246,0.1677649
6715.03,0.168338
6720.82,0.170432
6726.603,0.167661
6732.39,0.165119
6738.174,0.1559883
6743.959,0.153663
6749.745,0.161485
6755.53,0.172038
6761.316,0.175952
6767.101,0.178822
6772.887,0.1761982
6778.672,0.1632683
6784.46,0.1642845
6790.243,0.1658899
6796.029,0.163463
6801.814,0.154246
6807.6,0.156831
6813.385,0.164629
6819.17,0.176994
6824.956,0.174454
6830.74,0.1669537
6836.53,0.163764
6842.313,0.163441
6848.1,0.158376
6853.884,0.1619363
6859.669,0.1730142
6865.455,0.180267
6871.24,0.182375
6877.026,0.179488
6882.811,0.175578
6888.597,0.174147
6894.382,0.1779799
6900.17,0.17556
6905.953,0.170994
6911.74,0.1656675
6917.524,0.175406
6923.31,0.181681
6929.095,0.178648
6934.88,0.165084
6940.666,0.163699
6946.45,0.169148
6952.24,0.1795042
6958.022,0.175462
6963.81,0.1709233
6969.594,0.171841
6975.379,0.177411
6981.165,0.186712
6986.95,0.1896122
6992.735,0.189139
6998.521,0.192013
7004.307,0.190259
7010.092,0.187425
7015.88,0.180868
7021.66,0.181207
7027.45,0.188353
7033.234,0.1882768
7039.02,0.192761
7044.805,0.188635
7050.59,0.180872
7056.376,0.174613
7062.16,0.178818
7067.95,0.1933423
7073.732,0.189801
7079.518,0.1850969
7085.304,0.198156
7091.089,0.2011345
7096.875,0.204163
7102.66,0.2002072
7108.445,0.196938
7114.231,0.186045
7120.017,0.176531
7125.802,0.186756
7131.59,0.19428
7137.37,0.190862
7143.16,0.178824
7148.944,0.178893
7154.729,0.19616
7160.515,0.1939174
7166.3,0.194227
7172.09,0.188711
7177.87,0.18172
7183.66,0.1848488
7189.44,0.1957463
7195.228,0.2143955
7201.01,0.209657
7206.799,0.194944
7212.584,0.190241
7218.37,0.207994
7224.155,0.2030464
7229.941,0.210641
7235.727,0.20778
7241.512,0.193838
7247.297,0.1832482
7253.08,0.1951885
7258.868,0.203608
7264.654,0.189954
7270.439,0.1909811
7276.225,0.19365
7282.01,0.194398
7287.8,0.191751
7293.58,0.205396
7299.37,0.216809
7305.15,0.218057
7310.938,0.210027
7316.72,0.211478
7322.509,0.202352
7328.294,0.204419
7334.08,0.1953676
7339.865,0.2032143
7345.651,0.221767
7351.437,0.220691
7357.222,0.2106671
7363.007,0.200988
7368.79,0.21367
7374.578,0.2134268
7380.36,0.198887
7386.149,0.1907944
7391.935,0.197484
7397.72,0.2089675
7403.51,0.21213
7409.291,0.210305
7415.08,0.212572
7420.86,0.218717
7426.648,0.217954
7432.43,0.210659
7438.219,0.210562
7444.004,0.221688
7449.79,0.245923
7455.575,0.242619
7461.361,0.231797
7467.146,0.2109259
7472.932,0.210457
7478.717,0.234252
7484.5,0.229329
7490.29,0.2040655
7496.07,0.195661
7501.859,0.212216
7507.645,0.231286
7513.43,0.2109927
7519.22,0.1944249
7525.001,0.1942
7530.79,0.227929
7536.57,0.2411077
7542.357,0.234606
7548.143,0.232648
7553.929,0.224553
7559.714,0.231878
7565.5,0.227789
7571.285,0.231425
7577.071,0.225641
7582.856,0.213302
7588.642,0.209472
7594.427,0.202319
7600.21,0.22223
7606,0.239238
7611.78,0.2548284
7617.569,0.244931
7623.354,0.25617
7629.14,0.26319
7634.93,0.279698
7640.71,0.298312
7646.5,0.2711633
7652.28,0.225027
7658.07,0.192311
7663.853,0.212056
7669.639,0.238601
7675.424,0.232715
7681.209,0.205838
7686.995,0.182219
7692.781,0.1902733
7698.566,0.217304
7704.352,0.244206
7710.137,0.24648
7715.922,0.263468
7721.71,0.244175
7727.49,0.232806
7733.279,0.212385
7739.064,0.216307
7744.85,0.2338238
7750.635,0.264271
7756.42,0.2505093
7762.21,0.228389
7767.99,0.232333
7773.78,0.229121
7779.563,0.2231253
7785.349,0.224916
7791.134,0.2520556
7796.919,0.2788774
7802.705,0.290153
7808.49,0.2952079
7814.276,0.284421
7820.062,0.280059
7825.847,0.252835
7831.632,0.19663
7837.42,0.193957
7843.2,0.234949
7848.99,0.25102
7854.774,0.257509
7860.56,0.217485
7866.345,0.2203207
7872.13,0.22266
7877.92,0.2507734
7883.7,0.242827
7889.49,0.246259
7895.273,0.230242
7901.059,0.229257
7906.844,0.208381
7912.629,0.228989
7918.415,0.2459181
7924.2,0.312104
7929.986,0.314761
7935.771,0.2788637
7941.557,0.2777063
7947.342,0.3455757
7953.13,0.3965916
7958.91,0.3640045
7964.7,0.366865
7970.484,0.342618
7976.27,0.37613
7982.055,0.368594
7987.84,0.361079
7993.626,0.299131
7999.41,0.230058
8005.2,0.278356
8010.983,0.334186
8016.768,0.351413
8022.554,0.268686
8028.339,0.276291
8034.125,0.28992
8039.91,0.4037222
8045.696,0.398244
8051.481,0.330441
8057.267,0.290306
8063.052,0.328439
8068.84,0.3109258
8074.62,0.256596
8080.41,0.240487
8086.194,0.235562
8091.979,0.337908
8097.765,0.414326
8103.55,0.444244
8109.34,0.354783
8115.12,0.212327
8120.91,0.2358701
8126.693,0.267947
8132.478,0.3008113
8138.264,0.1764441
8144.049,0.131886
8149.834,0.257562
8155.62,0.356651
8161.406,0.29505
8167.191,0.180138
8172.977,0.311433
8178.762,0.697827
8184.55,0.802935
8190.33,0.436714
8196.118,0.0467175
8201.904,0.279497
8207.689,0.668823
8213.476,0.7569018
8219.261,0.474891
8225.046,0.177549
8230.832,0.874803
8236.617,1.49334
8242.402,1.04052
8248.188,0.752329
8253.974,0.552662
8259.759,0.678026
8265.545,1.07583
8271.33,1.572819
8277.115,1.166277
8282.901,0.791597
8288.687,0.0813087
8294.472,0.406898
8300.258,0.875792
8306.043,0.831696
8311.83,0.720219
8317.614,0.330632
8323.399,0.6368026
8329.185,0.322223
8334.971,1.15851
8340.756,1.48199
8346.542,0.7123607
8352.327,0.7081716
8358.112,0.614371
8363.9,1.69101
8369.68,0.229631
8375.47,0.885444
8381.255,0.898968
8387.04,-0.290118
8392.825,0.189116
8398.61,1.06476
8404.396,2.93348
8410.18,1.613749
8415.968,0.0941655
8421.753,0.585229
8427.538,1.35151
8433.324,1.13247
8439.109,1.21519
8444.895,1.78107
8450.681,1.95148
8456.466,2.97483
8462.251,2.29959
8468.037,2.01937
8473.822,0.847052
8479.608,0.00643739
8485.394,1.30051
8491.179,1.67343
8496.965,4.622124
8500.821,4.01193