File: Glass FTIR Baseline Share With Sarah 2023/Dans_Examples/FR04MI01.csv
449.3401,2.02195
455.1256,1.81932
460.9111,2.68432
466.6966,1.44002
472.4821,1.20959
478.2676,2.58003
484.0531,2.48213
489.8386,1.01667
495.6241,1.55552
501.4096,1.68422
507.1951,2.65129
512.9806,3.09501
518.7661,2.02513
524.5516,2.67774
530.3371,3.35418
536.1226,1.59514
541.9081,2.32912
547.6935,1.31792
553.4791,0.183946
559.2646,1.78092
565.05,2.51091
570.8356,3.44785
576.621,3.14343
582.4066,0.748916
588.192,1.84309
593.9775,1.67813
599.7631,1.87272
605.5485,2.06232
611.334,1.7112
617.1195,1.73511
622.905,0.992053
628.6905,1.48121
634.476,2.63975
640.2615,1.72111
646.047,1.38283
651.8325,2.41185
657.618,1.91928
663.4035,0.849895
669.189,0.834388
674.9745,1.58601
680.7599,1.37956
686.5455,1.36148
692.3309,2.0401
698.1165,1.98444
703.902,1.39652
709.6874,1.46524
715.473,1.93793
721.2584,2.17455
727.0439,1.94746
732.8294,1.64369
738.6149,1.69078
744.4004,1.43114
750.1859,1.16073
755.9714,1.44164
761.7569,1.49141
767.5424,1.49007
773.3279,1.46079
779.1134,1.96994
784.8989,2.122102
790.6844,2.003827
796.4699,1.531083
802.2554,1.6563
808.0409,1.62661
813.8264,1.63119
819.6119,1.624295
825.3973,1.55477
831.1829,1.587
836.9683,1.737184
842.7538,1.87568
848.5394,1.911592
854.3248,1.606
860.1104,1.88504
865.8958,2.64184
871.6813,2.97508
877.4668,2.82854
883.2523,2.19297
889.0378,1.86186
894.8233,1.73709
900.6088,1.98025
906.3943,2.30587
912.1798,2.300219
917.9653,2.1309
923.7508,1.92532
929.5363,1.65301
935.3218,1.6884
941.1072,1.71479
946.8928,2.15395
952.6783,2.25467
958.4637,2.25606
964.2493,1.88826
970.0347,1.904412
975.8203,1.800639
981.6057,1.95883
987.3912,2.17609
993.1768,2.1171
998.9622,1.867438
1004.748,1.83731
1010.533,1.957774
1016.319,2.099566
1022.1,2.18733
1027.89,2.10553
1033.675,1.837091
1039.461,2.13268
1045.246,2.34494
1051.032,2.13535
1056.817,2.39606
1062.603,2.800112
1068.388,2.94386
1074.174,2.477396
1079.96,1.90725
1085.745,2.21086
1091.53,2.39731
1097.316,2.41267
1103.101,2.23776
1108.887,2.05433
1114.672,2.07916
1120.458,2.0721
1126.243,2.02022
1132.029,1.86393
1137.81,1.93446
1143.6,2.08089
1149.385,2.117397
1155.171,2.035223
1160.96,1.8068
1166.742,1.91311
1172.527,1.923776
1178.313,1.99662
1184.098,2.06429
1189.884,2.026753
1195.67,1.974782
1201.455,1.96447
1207.24,1.93046
1213.026,1.87693
1218.81,1.82255
1224.597,1.73263
1230.382,1.57769
1236.167,1.41704
1241.953,1.293485
1247.739,1.18361
1253.524,1.0897
1259.31,1.00493
1265.095,0.930244
1270.88,0.8627
1276.67,0.799434
1282.452,0.742904
1288.237,0.695479
1294.022,0.654831
1299.808,0.615934
1305.594,0.582899
1311.379,0.552744
1317.164,0.5260373
1322.95,0.5015499
1328.735,0.480983
1334.521,0.462251
1340.307,0.446377
1346.092,0.433527
1351.88,0.423984
1357.66,0.417817
1363.45,0.4123566
1369.234,0.409019
1375.019,0.407563
1380.805,0.405856
1386.59,0.40382
1392.376,0.404885
1398.161,0.4075355
1403.95,0.412735
1409.73,0.4161066
1415.52,0.416435
1421.3,0.416512
1427.089,0.418038
1432.874,0.415604
1438.66,0.411069
1444.445,0.405137
1450.231,0.401821
1456.016,0.394394
1461.8,0.3863391
1467.59,0.3812452
1473.37,0.379591
1479.158,0.379945
1484.944,0.381204
1490.729,0.383125
1496.515,0.3876165
1502.3,0.393999
1508.086,0.398906
1513.871,0.403837
1519.66,0.406616
1525.442,0.407785
1531.23,0.403658
1537.013,0.394817
1542.799,0.386353
1548.58,0.381415
1554.37,0.379581
1560.155,0.375616
1565.941,0.372037
1571.726,0.369542
1577.51,0.37249
1583.297,0.374954
1589.08,0.380295
1594.868,0.389451
1600.654,0.406079
1606.44,0.430458
1612.225,0.464476
1618.01,0.5066984
1623.796,0.548102
1629.58,0.581254
1635.37,0.600179
1641.152,0.6005328
1646.94,0.5834628
1652.723,0.557528
1658.509,0.5251078
1664.29,0.490423
1670.08,0.456715
1675.865,0.4280731
1681.651,0.403098
1687.44,0.38336
1693.22,0.368369
1699.007,0.3577746
1704.793,0.348876
1710.578,0.338536
1716.364,0.331516
1722.149,0.326857
1727.935,0.324125
1733.72,0.322967
1739.506,0.3230442
1745.29,0.324386
1751.08,0.3247982
1756.862,0.325795
1762.648,0.32642
1768.433,0.323077
1774.219,0.3179597
1780.004,0.311569
1785.79,0.30679
1791.575,0.3036255
1797.361,0.302656
1803.146,0.301619
1808.932,0.3012633
1814.717,0.302314
1820.503,0.30115
1826.29,0.2983734
1832.07,0.294189
1837.859,0.2905163
1843.645,0.287282
1849.43,0.285046
1855.22,0.282698
1861.001,0.280869
1866.786,0.279182
1872.57,0.2799467
1878.358,0.280179
1884.14,0.2791615
1889.93,0.276584
1895.714,0.273404
1901.5,0.271304
1907.285,0.267812
1913.07,0.26386
1918.856,0.260768
1924.641,0.259467
1930.43,0.258817
1936.213,0.257854
1942,0.2570982
1947.783,0.254247
1953.569,0.25144
1959.354,0.247897
1965.14,0.2457684
1970.925,0.242978
1976.711,0.239286
1982.496,0.236769
1988.28,0.236421
1994.068,0.237483
1999.85,0.238009
2005.638,0.23739
2011.424,0.23513
2017.21,0.2328
2022.995,0.2308175
2028.78,0.228374
2034.566,0.225057
2040.351,0.222552
2046.14,0.22154
2051.922,0.222722
2057.708,0.223618
2063.493,0.225105
2069.279,0.225906
2075.064,0.2268821
2080.85,0.227302
2086.635,0.225495
2092.42,0.222506
2098.206,0.219965
2103.992,0.220404
2109.777,0.221138
2115.563,0.222161
2121.348,0.22268
2127.134,0.224419
2132.919,0.226919
2138.705,0.226919
2144.49,0.226501
2150.276,0.225361
2156.061,0.225911
2161.847,0.225577
2167.632,0.225096
2173.42,0.224089
2179.203,0.224809
2184.989,0.227265
2190.774,0.229022
2196.56,0.231069
2202.345,0.232558
2208.131,0.233595
2213.916,0.234348
2219.702,0.234615
2225.487,0.2349656
2231.27,0.234689
2237.058,0.235037
2242.844,0.235608
2248.629,0.2364953
2254.415,0.237501
2260.2,0.239091
2265.986,0.242065
2271.771,0.244539
2277.56,0.244463
2283.342,0.243821
2289.13,0.243538
2294.913,0.245141
2300.699,0.24517
2306.484,0.244614
2312.27,0.241803
2318.055,0.240858
2323.841,0.243319
2329.626,0.246154
2335.41,0.248561
2341.197,0.24948
2346.98,0.251424
2352.768,0.252882
2358.554,0.250681
2364.339,0.249278
2370.125,0.2483908
2375.91,0.249584
2381.696,0.249791
2387.481,0.250871
2393.27,0.2520052
2399.052,0.25349
2404.84,0.2534708
2410.623,0.252412
2416.409,0.251111
2422.194,0.250219
2427.98,0.249752
2433.765,0.249822
2439.551,0.247489
2445.34,0.246157
2451.12,0.24614
2456.907,0.246595
2462.69,0.246323
2468.478,0.246053
2474.264,0.245438
2480.049,0.246344
2485.834,0.2453328
2491.62,0.24551
2497.406,0.243959
2503.19,0.24185
2508.98,0.240083
2514.762,0.240737
2520.548,0.241193
2526.333,0.24145
2532.119,0.242362
2537.904,0.244495
2543.689,0.246042
2549.475,0.247248
2555.26,0.248883
2561.05,0.2501833
2566.83,0.2498739
2572.617,0.250055
2578.403,0.250813
2584.188,0.2516945
2589.973,0.252879
2595.759,0.255866
2601.544,0.259765
2607.33,0.262133
2613.115,0.2639221
2618.901,0.2673281
2624.687,0.271829
2630.472,0.2740056
2636.258,0.27546
2642.04,0.27688
2647.828,0.279677
2653.614,0.282625
2659.4,0.285728
2665.185,0.2885703
2670.97,0.292175
2676.756,0.295949
2682.542,0.300163
2688.327,0.305422
2694.112,0.31007
2699.9,0.3135729
2705.683,0.314986
2711.469,0.317593
2717.25,0.32139
2723.04,0.324733
2728.825,0.32972
2734.611,0.332848
2740.4,0.33742
2746.18,0.3435586
2751.967,0.351966
2757.75,0.358962
2763.538,0.363241
2769.324,0.366321
2775.11,0.370073
2780.895,0.3743677
2786.68,0.37921
2792.466,0.38245
2798.25,0.386766
2804.04,0.392134
2809.822,0.398264
2815.61,0.404063
2821.393,0.411105
2827.179,0.418934
2832.96,0.42723
2838.75,0.433255
2844.535,0.434493
2850.321,0.437159
2856.11,0.442222
2861.89,0.451819
2867.677,0.460224
2873.46,0.468535
2879.248,0.4755088
2885.034,0.483701
2890.82,0.490744
2896.605,0.497942
2902.39,0.506087
2908.176,0.51498
2913.961,0.5237518
2919.75,0.530147
2925.532,0.534224
2931.32,0.539872
2937.103,0.548892
2942.889,0.557012
2948.67,0.564849
2954.46,0.573938
2960.245,0.582922
2966.031,0.591643
2971.816,0.602903
2977.6,0.611986
2983.387,0.61883
2989.173,0.623044
2994.958,0.632316
3000.744,0.641237
3006.53,0.648178
3012.315,0.6587305
3018.1,0.667706
3023.886,0.679947
3029.671,0.6924335
3035.46,0.702645
3041.242,0.7149736
3047.028,0.725282
3052.813,0.731739
3058.599,0.742146
3064.384,0.7494952
3070.17,0.763803
3075.955,0.775479
3081.741,0.782545
3087.526,0.7882226
3093.312,0.805158
3099.097,0.8256028
3104.883,0.841657
3110.67,0.849016
3116.454,0.8586948
3122.239,0.869357
3128.025,0.882307
3133.81,0.8955372
3139.595,0.908034
3145.381,0.911855
3151.167,0.9178302
3156.952,0.935321
3162.738,0.956317
3168.52,0.9727308
3174.309,0.987637
3180.094,1.00565
3185.88,1.01644
3191.665,1.01919
3197.45,1.03112
3203.236,1.051086
3209.02,1.07425
3214.81,1.072
3220.593,1.07296
3226.38,1.0867
3232.164,1.11293
3237.949,1.12467
3243.73,1.12856
3249.52,1.13597
3255.305,1.13851
3261.091,1.15241
3266.88,1.17133
3272.66,1.19595
3278.448,1.20555
3284.23,1.21422
3290.02,1.222633
3295.804,1.236276
3301.59,1.24578
3307.375,1.25719
3313.16,1.257687
3318.946,1.260593
3324.73,1.2714
3330.52,1.28899
3336.302,1.303556
3342.09,1.31243
3347.873,1.3174
3353.659,1.32728
3359.44,1.35216
3365.23,1.38589
3371.015,1.39243
3376.801,1.41417
3382.586,1.44439
3388.37,1.454163
3394.157,1.45693
3399.94,1.46597
3405.728,1.48263
3411.514,1.46648
3417.3,1.449196
3423.085,1.46544
3428.87,1.46361
3434.656,1.4729
3440.441,1.48774
3446.23,1.489812
3452.012,1.4941
3457.798,1.537681
3463.583,1.555231
3469.369,1.54381
3475.15,1.554842
3480.94,1.58404
3486.725,1.58139
3492.511,1.53161
3498.296,1.46777
3504.08,1.50669
3509.867,1.56265
3515.653,1.56299
3521.438,1.57674
3527.224,1.62535
3533.009,1.67872
3538.795,1.656648
3544.58,1.59298
3550.366,1.56404
3556.151,1.51613
3561.937,1.541434
3567.722,1.53047
3573.508,1.5154
3579.29,1.496427
3585.079,1.46214
3590.864,1.409609
3596.65,1.35374
3602.435,1.33038
3608.22,1.29974
3614.006,1.23049
3619.792,1.13931
3625.577,1.055647
3631.363,0.983616
3637.15,0.886887
3642.934,0.796925
3648.719,0.7175533
3654.505,0.645625
3660.29,0.576052
3666.08,0.518025
3671.861,0.463584
3677.647,0.417511
3683.43,0.383801
3689.218,0.35528
3695,0.326522
3700.789,0.301827
3706.574,0.285783
3712.36,0.2735668
3718.145,0.2627684
3723.93,0.253815
3729.716,0.246086
3735.502,0.241061
3741.29,0.239931
3747.073,0.238608
3752.86,0.236698
3758.64,0.233192
3764.429,0.226742
3770.215,0.2203973
3776.0,0.219005
3781.79,0.222121
3787.571,0.222974
3793.36,0.221854
3799.14,0.221007
3804.927,0.22362
3810.71,0.226757
3816.5,0.227492
3822.284,0.22439
3828.07,0.220615
3833.855,0.2177644
3839.64,0.215679
3845.426,0.21594
3851.211,0.213096
3857,0.213321
3862.782,0.212952
3868.57,0.215964
3874.35,0.218591
3880.139,0.224103
3885.925,0.227976
3891.71,0.228127
3897.495,0.221281
3903.281,0.216518
3909.066,0.2160231
3914.85,0.218985
3920.637,0.221941
3926.423,0.2214859
3932.208,0.224014
3937.994,0.225231
3943.78,0.225367
3949.565,0.2204107
3955.35,0.2184148
3961.136,0.221066
3966.921,0.224177
3972.71,0.2225283
3978.492,0.219464
3984.278,0.2174593
3990.063,0.2168396
3995.849,0.216867
4001.634,0.219774
4007.42,0.222298
4013.205,0.223779
4018.991,0.221062
4024.776,0.219762
4030.562,0.219432
4036.347,0.2186057
4042.133,0.219163
4047.92,0.219321
4053.704,0.219748
4059.489,0.2199669
4065.275,0.2194823
4071.06,0.217528
4076.85,0.217418
4082.631,0.21927
4088.417,0.2222347
4094.202,0.22355
4099.988,0.222138
4105.773,0.2205684
4111.559,0.2198266
4117.344,0.218539
4123.13,0.21529
4128.916,0.212275
4134.701,0.215538
4140.486,0.220338
4146.272,0.222772
4152.057,0.223882
4157.843,0.222963
4163.628,0.21966
4169.41,0.217902
4175.2,0.21957
4180.985,0.220696
4186.77,0.2192378
4192.556,0.220101
4198.34,0.2201889
4204.127,0.221946
4209.912,0.222891
4215.698,0.224404
4221.483,0.224396
4227.269,0.221882
4233.054,0.220542
4238.84,0.220503
4244.625,0.2221012
4250.411,0.220212
4256.196,0.2201594
4261.982,0.221389
4267.767,0.222036
4273.553,0.223621
4279.338,0.225974
4285.124,0.225282
4290.91,0.2255675
4296.695,0.225412
4302.48,0.22642
4308.266,0.227158
4314.05,0.225246
4319.84,0.2246363
4325.622,0.225092
4331.41,0.228372
4337.193,0.2328789
4342.979,0.233988
4348.764,0.234865
4354.55,0.2334847
4360.335,0.2337139
4366.121,0.237294
4371.906,0.235082
4377.691,0.235492
4383.477,0.234745
4389.263,0.2350839
4395.048,0.237906
4400.833,0.237888
4406.62,0.237187
4412.405,0.2363391
4418.19,0.240872
4423.976,0.243266
4429.76,0.243949
4435.55,0.238395
4441.332,0.239522
4447.12,0.241874
4452.903,0.244796
4458.688,0.244958
4464.474,0.2447811
4470.26,0.245906
4476.045,0.2453
4481.831,0.246031
4487.616,0.247233
4493.401,0.2459015
4499.187,0.246355
4504.973,0.24841
4510.758,0.246351
4516.543,0.2429663
4522.33,0.242494
4528.11,0.246698
4533.9,0.247645
4539.686,0.2456906
4545.471,0.249892
4551.26,0.250809
4557.042,0.2477
4562.83,0.245478
4568.613,0.2448639
4574.398,0.2479316
4580.184,0.248713
4585.969,0.247803
4591.755,0.2431593
4597.541,0.243038
4603.326,0.247138
4609.111,0.24927
4614.897,0.248687
4620.683,0.247938
4626.468,0.248632
4632.253,0.246846
4638.04,0.248242
4643.82,0.249144
4649.61,0.251126
4655.396,0.250597
4661.181,0.252277
4666.97,0.251119
4672.752,0.245751
4678.538,0.2462442
4684.323,0.249986
4690.108,0.252444
4695.894,0.250849
4701.679,0.252669
4707.465,0.257656
4713.25,0.258109
4719.036,0.2537485
4724.821,0.250143
4730.607,0.248991
4736.392,0.252987
4742.178,0.2546439
4747.963,0.254685
4753.749,0.255755
4759.53,0.2579965
4765.32,0.259583
4771.105,0.2594056
4776.891,0.2597859
4782.68,0.261769
4788.462,0.25985
4794.247,0.258463
4800.03,0.258236
4805.818,0.261003
4811.604,0.265237
4817.389,0.2658421
4823.175,0.25971
4828.96,0.260649
4834.746,0.2592737
4840.531,0.257624
4846.317,0.25911
4852.102,0.261648
4857.888,0.268956
4863.673,0.2712589
4869.458,0.268786
4875.24,0.263151
4881.03,0.26278
4886.815,0.26368
4892.601,0.264082
4898.39,0.2659048
4904.17,0.2698438
4909.957,0.2671245
4915.74,0.26209
4921.528,0.263812
4927.313,0.2724151
4933.099,0.273314
4938.885,0.269978
4944.67,0.265988
4950.456,0.265597
4956.241,0.2693009
4962.027,0.272376
4967.812,0.277659
4973.598,0.278615
4979.383,0.283295
4985.168,0.28055
4990.95,0.276342
4996.74,0.272082
5002.525,0.276608
5008.311,0.2747097
5014.096,0.2720001
5019.88,0.272949
5025.667,0.274441
5031.45,0.279787
5037.238,0.27714
5043.023,0.2776173
5048.809,0.276872
5054.595,0.279307
5060.38,0.2784448
5066.166,0.276444
5071.951,0.2775989
5077.736,0.282637
5083.522,0.283824
5089.308,0.2745028
5095.093,0.273989
5100.878,0.280886
5106.66,0.286666
5112.45,0.2866363
5118.235,0.2830727
5124.021,0.288239
5129.806,0.288177
5135.59,0.28685
5141.377,0.2773895
5147.163,0.278495
5152.948,0.281703
5158.733,0.280195
5164.519,0.278707
5170.305,0.280959
5176.09,0.284594
5181.875,0.2857
5187.661,0.291451
5193.446,0.291295
5199.232,0.292427
5205.018,0.292855
5210.803,0.296756
5216.588,0.291538
5222.374,0.283982
5228.16,0.2787777
5233.945,0.2831192
5239.73,0.286405
5245.516,0.286271
5251.3,0.283797
5257.09,0.282631
5262.87,0.2794498
5268.658,0.277723
5274.443,0.280728
5280.229,0.279911
5286.014,0.2812419
5291.8,0.285384
5297.585,0.290231
5303.371,0.284261
5309.156,0.2808232
5314.94,0.2809582
5320.728,0.2803621
5326.51,0.278464
5332.3,0.283297
5338.084,0.290218
5343.87,0.289569
5349.655,0.284278
5355.44,0.281919
5361.226,0.282377
5367.01,0.285087
5372.797,0.286586
5378.58,0.285408
5384.368,0.2840196
5390.153,0.28763
5395.939,0.28862
5401.724,0.2846144
5407.51,0.282691
5413.295,0.285027
5419.081,0.287135
5424.866,0.287754
5430.65,0.28151
5436.438,0.286047
5442.22,0.28847
5448.01,0.2870081
5453.794,0.286565
5459.58,0.2804211
5465.365,0.2750533
5471.15,0.274835
5476.936,0.277392
5482.721,0.2779345
5488.507,0.2799997
5494.29,0.2855309
5500.078,0.290373
5505.863,0.28743
5511.649,0.2890468
5517.434,0.287064
5523.22,0.2901292
5529.005,0.294206
5534.791,0.289923
5540.576,0.285489
5546.36,0.282411
5552.147,0.288882
5557.93,0.289935
5563.72,0.282508
5569.504,0.279555
5575.29,0.280351
5581.075,0.286641
5586.86,0.284319
5592.646,0.285696
5598.431,0.2909691
5604.217,0.290439
5610,0.280649
5615.79,0.280157
5621.573,0.2879938
5627.358,0.2931931
5633.144,0.293162
5638.93,0.289452
5644.715,0.288083
5650.5,0.28592
5656.286,0.284234
5662.07,0.282065
5667.857,0.285417
5673.643,0.286396
5679.43,0.2923539
5685.21,0.287929
5690.999,0.291317
5696.785,0.288176
5702.57,0.293747
5708.355,0.2896392
5714.141,0.291707
5719.927,0.287801
5725.71,0.291375
5731.5,0.290402
5737.283,0.29102
5743.068,0.281805
5748.854,0.278469
5754.64,0.274378
5760.425,0.280871
5766.21,0.283747
5771.996,0.2798078
5777.78,0.269494
5783.57,0.275428
5789.353,0.288356
5795.14,0.286362
5800.92,0.276262
5806.709,0.271232
5812.495,0.278624
5818.28,0.286747
5824.065,0.284197
5829.851,0.280879
5835.637,0.27968
5841.422,0.273986
5847.21,0.27246
5852.993,0.271672
5858.778,0.276273
5864.564,0.2850372
5870.35,0.283221
5876.135,0.284032
5881.92,0.2814
5887.706,0.285626
5893.491,0.28589
5899.28,0.276547
5905.063,0.281407
5910.85,0.286828
5916.63,0.282972
5922.419,0.2687997
5928.205,0.26802
5933.99,0.2787863
5939.775,0.284943
5945.561,0.27816
5951.346,0.278289
5957.132,0.289952
5962.92,0.2971179
5968.703,0.296214
5974.488,0.286047
5980.274,0.279285
5986.06,0.28015
5991.845,0.2910554
5997.63,0.295067
6003.416,0.290759
6009.201,0.276955
6014.99,0.279104
6020.772,0.2776369
6026.56,0.2775081
6032.34,0.273782
6038.129,0.273171
6043.915,0.270395
6049.7,0.2685437
6055.485,0.273331
6061.271,0.2816945
6067.056,0.285145
6072.842,0.285083
6078.63,0.2825779
6084.41,0.278817
6090.198,0.2755376
6095.984,0.279553
6101.769,0.295002
6107.555,0.295057
6113.34,0.2896171
6119.126,0.275662
6124.911,0.283242
6130.7,0.288763
6136.482,0.277026
6142.268,0.268547
6148.05,0.267265
6153.839,0.283181
6159.624,0.292844
6165.41,0.282991
6171.195,0.271577
6176.981,0.254421
6182.766,0.255688
6188.552,0.2686727
6194.34,0.296071
6200.12,0.28853
6205.908,0.2853847
6211.694,0.274255
6217.479,0.2751088
6223.265,0.278613
6229.05,0.2790287
6234.835,0.279072
6240.621,0.285772
6246.41,0.286272
6252.19,0.286933
6257.978,0.280213
6263.76,0.271216
6269.549,0.270409
6275.334,0.263223
6281.12,0.273269
6286.905,0.265845
6292.69,0.281221
6298.476,0.280568
6304.262,0.286297
6310.047,0.269926
6315.83,0.265173
6321.618,0.265094
6327.404,0.263334
6333.189,0.2624937
6338.975,0.2578083
6344.76,0.265367
6350.545,0.2771632
6356.331,0.288664
6362.12,0.293039
6367.9,0.285937
6373.688,0.283024
6379.47,0.2757723
6385.259,0.2806
6391.044,0.294002
6396.83,0.305921
6402.615,0.299203
6408.4,0.282333
6414.186,0.2632256
6419.972,0.262015
6425.757,0.274674
6431.54,0.2881935
6437.328,0.281761
6443.113,0.270335
6448.899,0.269564
6454.685,0.282004
6460.47,0.289908
6466.255,0.288824
6472.041,0.278983
6477.83,0.2808067
6483.61,0.279622
6489.397,0.283965
6495.18,0.275328
6500.97,0.2543659
6506.754,0.246434
6512.54,0.27064
6518.325,0.292815
6524.11,0.304579
6529.896,0.2950508
6535.682,0.284962
6541.467,0.284661
6547.25,0.291239
6553.04,0.289962
6558.823,0.294163
6564.609,0.2912088
6570.395,0.299439
6576.18,0.297461
6581.965,0.284317
6587.751,0.271324
6593.54,0.264766
6599.32,0.278954
6605.107,0.2936757
6610.893,0.301831
6616.68,0.297109
6622.464,0.299039
6628.25,0.291182
6634.035,0.290694
6639.82,0.284896
6645.606,0.278034
6651.391,0.275556
6657.177,0.278632
6662.96,0.283036
6668.75,0.256763
6674.533,0.268991
6680.319,0.268676
6686.104,0.293005
6691.89,0.2867174
6697.675,0.2853449
6703.46,0.27184
6709.246,0.2882877
6715.03,0.278697
6720.82,0.288716
6726.603,0.301551
6732.39,0.295389
6738.174,0.278406
6743.959,0.281011
6749.745,0.290016
6755.53,0.2881127
6761.316,0.265911
6767.101,0.2738235
6772.887,0.275594
6778.672,0.279458
6784.46,0.275994
6790.243,0.278471
6796.029,0.2759367
6801.814,0.2889717
6807.6,0.286312
6813.385,0.29935
6819.17,0.299489
6824.956,0.299434
6830.74,0.306154
6836.53,0.305533
6842.313,0.305635
6848.1,0.295349
6853.884,0.304848
6859.669,0.2995151
6865.455,0.28968
6871.24,0.296975
6877.026,0.313623
6882.811,0.326055
6888.597,0.320167
6894.382,0.320751
6900.17,0.3023229
6905.953,0.295889
6911.74,0.30089
6917.524,0.305429
6923.31,0.324854
6929.095,0.316249
6934.88,0.304572
6940.666,0.2937966
6946.45,0.2885892
6952.24,0.279146
6958.022,0.282832
6963.81,0.311883
6969.594,0.340045
6975.379,0.318163
6981.165,0.292532
6986.95,0.270759
6992.735,0.2833
6998.521,0.283791
7004.307,0.294118
7010.092,0.297835
7015.88,0.295607
7021.66,0.305163
7027.45,0.316518
7033.234,0.309014
7039.02,0.28882
7044.805,0.29975
7050.59,0.339123
7056.376,0.323793
7062.16,0.290282
7067.95,0.299209
7073.732,0.306364
7079.518,0.3110853
7085.304,0.30906
7091.089,0.318006
7096.875,0.330905
7102.66,0.333223
7108.445,0.3469115
7114.231,0.354405
7120.017,0.348745
7125.802,0.326733
7131.59,0.334823
7137.37,0.3570342
7143.16,0.3439977
7148.944,0.302505
7154.729,0.252283
7160.515,0.240023
7166.3,0.285456
7172.09,0.337301
7177.87,0.33747
7183.66,0.345112
7189.44,0.377003
7195.228,0.370376
7201.01,0.322973
7206.799,0.278985
7212.584,0.267876
7218.37,0.295674
7224.155,0.292278
7229.941,0.286965
7235.727,0.300813
7241.512,0.290727
7247.297,0.297651
7253.08,0.298189
7258.868,0.333329
7264.654,0.337692
7270.439,0.3393343
7276.225,0.332631
7282.01,0.352614
7287.8,0.406408
7293.58,0.401222
7299.37,0.346079
7305.15,0.314471
7310.938,0.3263291
7316.72,0.359449
7322.509,0.3621448
7328.294,0.333788
7334.08,0.32452
7339.865,0.324643
7345.651,0.331694
7351.437,0.315598
7357.222,0.310355
7363.007,0.300105
7368.79,0.281946
7374.578,0.288532
7380.36,0.3374519
7386.149,0.372908
7391.935,0.346213
7397.72,0.289109
7403.51,0.274356
7409.291,0.314265
7415.08,0.345857
7420.86,0.37531
7426.648,0.390877
7432.43,0.377917
7438.219,0.341991
7444.004,0.3166893
7449.79,0.354334
7455.575,0.394485
7461.361,0.361484
7467.146,0.283581
7472.932,0.2786768
7478.717,0.3191101
7484.5,0.339597
7490.29,0.314362
7496.07,0.373703
7501.859,0.3881
7507.645,0.411212
7513.43,0.385013
7519.22,0.3922387
7525.001,0.369673
7530.79,0.335091
7536.57,0.395039
7542.357,0.399767
7548.143,0.389362
7553.929,0.325134
7559.714,0.309066
7565.5,0.350117
7571.285,0.359871
7577.071,0.313269
7582.856,0.309795
7588.642,0.269144
7594.427,0.323105
7600.21,0.4004172
7606,0.446029
7611.78,0.40053
7617.569,0.333122
7623.354,0.373156
7629.14,0.472881
7634.93,0.50831
7640.71,0.3956
7646.5,0.318933
7652.28,0.306543
7658.07,0.346783
7663.853,0.395052
7669.639,0.483743
7675.424,0.484047
7681.209,0.354711
7686.995,0.354403
7692.781,0.388551
7698.566,0.5026785
7704.352,0.520046
7710.137,0.526591
7715.922,0.6459763
7721.71,0.741132
7727.49,0.632978
7733.279,0.278537
7739.064,0.350582
7744.85,0.362397
7750.635,0.37206
7756.42,0.386697
7762.21,0.3109097
7767.99,0.278549
7773.78,0.148279
7779.563,0.567604
7785.349,0.7875877
7791.134,0.6751906
7796.919,0.439761
7802.705,0.385229
7808.49,0.470641
7814.276,0.649576
7820.062,1.720549
7825.847,1.91441
7831.632,0.995529
7837.42,0.404841
7843.2,0.3767471
7848.99,0.434758
7854.774,0.592544
7860.56,0.60523
7866.345,0.63634
7872.13,0.465532
7877.92,0.808685
7883.7,1.14335
7889.49,1.0757
7895.273,1.04753
7901.059,0.810735
7906.844,0.945183
7912.629,0.472815
7918.415,0.909142
7924.2,1.50592
7929.986,1.30853
7935.771,0.443733
7941.557,0.347607
7947.342,0.821378
7953.13,1.1301
7958.91,1.32116
7964.7,0.888895
7970.484,0.743485
7976.27,0.875755
7982.055,0.774717
7987.84,0.415943
7993.626,0.201395
7999.41,0.727416
8005.2,0.8098174
8010.983,1.53826
8016.768,2.01496
8022.554,1.76993
8028.339,1.01851
8034.125,0.567321
8039.91,1.60375
8045.696,1.80386
8051.481,1.41454
8057.267,1.11663
8063.052,1.3762
8068.84,2.10276
8074.62,1.56455
8080.41,1.48791
8086.194,1.23602
8091.979,1.26766
8097.765,1.35472
8103.55,1.0207
8109.34,0.9679047
8115.12,0.704196
8120.91,0.449954
8126.693,0.186169
8132.478,1.29641
8138.264,1.67996
8144.049,1.02704
8149.834,0.469242
8155.62,1.33912
8161.406,1.88809
8167.191,0.69346
8172.977,0.727029
8178.762,0.781819
8184.55,0.818172
8190.33,0.621454
8196.118,1.07127
8201.904,1.79777
8207.689,0.658267
8213.476,1.38653
8219.261,1.01475
8225.046,1.4448
8230.832,2.07617
8236.617,1.92431
8242.402,0.561997
8248.188,0.990379
8253.974,1.667118
8259.759,1.12258
8265.545,1.59663
8271.33,1.74697
8277.115,1.75944
8282.901,2.98913
8288.687,1.1832
8294.472,1.69098
8300.258,2.12291
8306.043,1.59877
8311.83,3.04722
8317.614,1.97532
8323.399,0.472885
8329.185,1.67789
8334.971,1.69132
8340.756,2.76971
8346.542,2.44183
8352.327,3.51451
8358.112,2.75799
8363.9,1.51309
8369.68,1.70773
8375.47,3.68476
8381.255,3.43076
8387.04,2.30138
8392.825,1.48254
8398.61,0.765825
8404.396,0.496588
8410.18,0.200969
8415.968,1.20199
8421.753,0.0798495
8427.538,1.10017
8433.324,2.07223
8439.109,2.99513
8444.895,2.43736
8450.681,3.26278
8456.466,3.877235
8462.251,2.37898
8468.037,2.03483
8473.822,1.24746
8479.608,1.722488
8485.394,1.50505
8491.179,1.80415
8496.965,2.23813
8500.821,1.56611